time(ms),acc.x,acc.y,acc.z,acclinear.x,acclinear.y,acclinear.z,gravity.x,gravity.y,gravity.z,gyroscope.x,gyroscope.y,gyroscope.z,RV.x,RV.y,RV.z,RV.cos,RV.heading
2,-0.53805,0.46500003,11.148001,-0.149,0,1.353,-0.381,0.463,9.788,-0.1340625,-0.031625,0.0771375,0.021693,0.021634,0.095399,0.994967,0
41,0.04605,0.61605,9.673051,0.307,0.095,-0.118,-0.266,0.517,9.789,0.1832875,-0.1956625,-0.00275,0.024961,0.016091,0.096298,0.994909,0
81,-0.76500005,0.66195005,9.469951,-0.509,0.083,-0.32,-0.255,0.57,9.786,0.0235125,0.124025,-0.00385,0.027734,0.015764,0.095445,0.994923,0
121,-0.094950005,0.58995,10.272,0.225,0.027,0.483,-0.307,0.557,9.785,-0.0584375,0.0143,0.117699996,0.026798,0.018377,0.097025,0.994751,0
161,0.109950006,0.59505004,9.64395,0.401,0.006,-0.075,-0.235,0.582,9.786,0.1662375,-0.112475,-0.0719125,0.028404,0.014881,0.097704,0.994698,0
202,-0.54495,0.63000005,9.405001,-0.3,0.016,-0.385,-0.246,0.624,9.783,0.02255,0.02915,-0.0048125,0.030478,0.01557,0.096412,0.994752,0
241,-0.21000001,0.606,9.826051,0.069,-0.003,0.089,-0.246,0.603,9.784,-0.1095875,-0.047575,0.0259875,0.0293,0.015451,0.096921,0.99474,0
281,-0.39600003,0.58695,10.08195,-0.147,0.014,0.292,-0.246,0.57,9.786,-0.0446875,-0.0177375,0.056925,0.027684,0.01532,0.097519,0.99473,0
322,0.15300001,0.53505003,10.20495,0.342,-0.042,0.413,-0.192,0.574,9.787,0.062975,-0.154,0.0506,0.028168,0.012669,0.098712,0.994636,0
361,-0.19500001,0.74505,9.594001,-0.048,0.116,-0.197,-0.141,0.619,9.786,0.130075,-0.095425,-0.0485375,0.03073,0.010312,0.098642,0.994594,0
401,-0.42795002,0.657,9.703951,-0.308,-0.004,-0.086,-0.114,0.657,9.783,0.047025,-0.0166375,-0.0517,0.032873,0.009065,0.097371,0.994663,0
441,-0.22395001,0.68595004,9.762,-0.087,0.011,-0.03,-0.128,0.671,9.782,0.0405625,-0.0518375,-5.50E-04,0.033393,0.009894,0.097269,0.994648,0
481,-0.35295,0.61095005,9.87705,-0.272,-0.098,0.093,-0.068,0.697,9.781,0.148225,-0.3267,0.0292875,0.035259,0.006619,0.097076,0.99463,0
522,0.32295,0.76695,9.793051,0.235,0.011,0.015,0.078,0.751,9.777,0.1109625,-0.333025,0.058025,0.038721,-8.16E-04,0.098151,0.994417,0
561,0.40005,0.77400005,9.759001,0.221,-0.024,-0.021,0.176,0.788,9.773,0.08635,-0.1604625,0.0697125,0.040953,-0.004958,0.099196,0.994212,0
601,0.010050001,0.90105003,9.60795,-0.257,0.086,-0.167,0.259,0.812,9.769,0.0385,-0.129525,-0.0314875,0.042595,-0.009071,0.099137,0.99412,0
641,0.46395,0.72405005,10.126051,0.162,-0.094,0.351,0.301,0.816,9.767,0.0363,-0.2264625,0.0548625,0.043006,-0.011132,0.099586,0.994036,0
681,0.16800001,0.77400005,9.73995,-0.194,-0.073,-0.025,0.357,0.838,9.764,0.0842875,0.0237875,0.0292875,0.044386,-0.013885,0.099949,0.993904,0
722,0.381,0.89595,9.68295,-0.009,0.054,-0.145,0.393,0.859,9.76,0.047025,-0.1551,0.03135,0.045667,-0.015589,0.100547,0.993761,0
761,0.29895002,0.85305005,9.867001,-0.09,-0.02,0.1,0.388,0.865,9.76,0.0320375,0.1079375,0.0719125,0.045958,-0.015228,0.101606,0.993645,0
801,0.67005,0.855,10.281,0.29,-0.035,0.509,0.377,0.879,9.759,0.12155,0.0738375,0.0378125,0.046763,-0.014449,0.102976,0.993478,0
841,0.32595003,1.0830001,9.187051,-0.056,0.132,-0.574,0.369,0.943,9.754,0.15565,-0.013475,0.021724999,0.050018,-0.013802,0.103378,0.993287,0
881,0.53895,0.88695,10.05405,0.204,-0.074,0.272,0.341,0.97,9.752,-0.0072875,0.2486,0.038775,0.05106,-0.011937,0.104056,0.993188,0
921,0.02205,1.29795,9.7900505,-0.279,0.278,0.029,0.297,1.018,9.749,0.1865875,-0.24145,0.0495,0.053331,-0.009632,0.10502,0.992992,0
961,0.88605005,1.00605,9.168,0.505,-0.093,-0.531,0.405,1.075,9.738,0.12155,0.0792,-0.0155375,0.056839,-0.01481,0.105494,0.992683,0
1001,0.09105001,1.1910001,9.4480505,-0.181,0.12,-0.306,0.263,1.064,9.745,-0.22247499,0.4637875,-0.0176,0.055475,-0.007648,0.105118,0.992881,0
1041,0.112950005,1.0489501,10.606951,-0.042,0.058,0.841,0.15,0.99,9.755,-0.0617375,0.070675,-0.061325,0.051095,-0.00235,0.10499,0.993156,0
1082,0.90000004,0.98505,10.0990505,0.675,-0.024,0.34,0.223,1.005,9.752,0.0768625,-0.1753125,-0.093225,0.052326,-0.006169,0.103206,0.993263,0
1121,-0.67395,1.1400001,10.18305,-0.868,0.076,0.426,0.2,1.053,9.747,0.25685,0.0930875,-0.1230625,0.054826,-0.004676,0.100414,0.993422,0
1161,0.41895002,1.2720001,8.799001,0.08,0.124,-0.907,0.254,1.172,9.732,0.180125,-0.4492125,0.0686125,0.060912,-0.006926,0.100296,0.993067,0
1201,0.11505,1.07805,9.477,-0.228,-0.106,-0.263,0.337,1.182,9.729,-0.0532125,0.1197625,-0.0485375,0.061844,-0.011069,0.100294,0.992972,0
1241,0.27105,1.0830001,9.68295,-0.03,-0.074,-0.064,0.289,1.15,9.734,-0.0840125,-0.097625,0.032449998,0.059862,-0.008921,0.100162,0.993128,0
1282,0.16995001,0.91305006,9.769051,-0.145,-0.19,0.026,0.309,1.103,9.739,-0.095699996,0.0823625,-0.03355,0.057535,-0.00998,0.099917,0.99328,0
1321,0.18705001,1.0999501,9.924001,-0.083,0.018,0.171,0.26,1.071,9.744,-0.066,-0.011275,0.0506,0.055713,-0.007789,0.100288,0.993366,0
1361,0.076950006,1.12395,9.819,-0.217,0.05,0.062,0.285,1.066,9.744,0.0490875,-0.10395,0.055825,0.055714,-0.009071,0.101145,0.993268,0
1401,0.78495,1.28205,9.661051,0.461,0.204,-0.085,0.326,1.079,9.741,-0.091437496,0.0248875,0.0430375,0.056534,-0.010952,0.1024,0.993075,0
1441,0.18900001,1.18305,10.39605,-0.122,0.123,0.646,0.299,1.047,9.745,-0.0308,0.105875,-0.042075,0.054731,-0.009632,0.102226,0.993207,0
1481,0.43800002,1.131,9.838051,0.123,0.059,0.09,0.312,1.071,9.742,0.08965,-0.146575,0.004675,0.056145,-0.010418,0.101872,0.993157,0
1522,0.22500001,1.1719501,9.526951,-0.114,0.069,-0.218,0.332,1.101,9.738,0.0650375,0.0237875,-0.0166375,0.05776,-0.011133,0.101648,0.993079,0
1561,0.393,1.1359501,9.85305,0.044,0.017,0.11,0.338,1.112,9.737,-0.0286,-0.0581625,0.005775,0.058273,-0.011398,0.101556,0.993056,0
1601,0.32595003,1.09695,9.66405,-0.03,-0.022,-0.08,0.344,1.112,9.737,0.0512875,-0.0198,0.005775,0.058319,-0.011713,0.101587,0.993046,0
1641,0.52395004,1.15695,9.441,0.141,0.016,-0.295,0.377,1.126,9.734,-0.0158125,-0.0507375,-0.061325,0.05922,-0.013332,0.101188,0.993013,0
1681,-0.112050004,1.0830001,9.832951,-0.457,-0.025,0.095,0.348,1.101,9.738,-0.08195,0.0738375,-0.0303875,0.057656,-0.012002,0.099747,0.993268,0
1721,0.462,1.0690501,10.066051,0.12,-0.013,0.323,0.329,1.076,9.741,-0.0072875,-0.0336875,0.0259875,0.056367,-0.011256,0.100065,0.993319,0
1761,0.13605,1.0879501,9.691951,-0.207,-0.01,-0.056,0.34,1.087,9.74,0.0565125,-0.0933625,0.0132,0.057026,-0.011727,0.100027,0.993279,0
1802,0.63000005,1.0519501,9.72795,0.261,-0.044,-0.026,0.378,1.093,9.738,-0.01375,0.0237875,-0.0198,0.057497,-0.013631,0.100227,0.993208,0
1841,-0.021000002,1.0519501,9.88605,-0.361,-0.034,0.134,0.347,1.082,9.74,-0.01485,0.022824999,-0.044275,0.056782,-0.012155,0.099286,0.993363,0
1881,0.41895002,1.04205,9.939,0.081,-0.053,0.187,0.34,1.075,9.741,0.0149875,0.0100375,0.025024999,0.056389,-0.011827,0.09932,0.993386,0
1921,0.26805001,1.18095,9.87705,-0.068,0.09,0.133,0.327,1.08,9.741,0.014025,0.06435,0.0281875,0.056685,-0.010987,0.099794,0.993331,0
1961,0.61995006,1.164,9.7879505,0.283,0.063,0.039,0.329,1.093,9.739,0.0385,-0.00495,0.0378125,0.057276,-0.011096,0.100604,0.993214,0
2001,0.42600003,1.176,9.529051,0.083,0.048,-0.203,0.337,1.108,9.737,-0.01375,0.038775,-0.0325875,0.058072,-0.011463,0.100577,0.993166,0
2042,0.33795002,1.0999501,9.970051,-0.013,-0.004,0.202,0.312,1.093,9.74,-0.0339625,0.061049998,-0.012375,0.05718,-0.010265,0.100195,0.99327,0
2081,0.33,1.1329501,9.438001,0.021,0.033,-0.301,0.305,1.096,9.74,0.02255,-0.013475,-0.00385,0.057282,-0.009886,0.100117,0.993276,0
2121,0.41205,1.0350001,9.91005,0.096,-0.046,0.16,0.311,1.081,9.741,-0.089375,0.0237875,-0.0133375,0.056444,-0.01031,0.099926,0.993339,0
2161,0.08895,1.131,9.92205,-0.211,0.069,0.17,0.292,1.061,9.744,-0.01155,-0.00605,-0.0144375,0.05541,-0.00948,0.099537,0.993444,0
2201,0.42600003,1.107,9.89805,0.129,0.041,0.143,0.292,1.062,9.744,0.0055,-6.88E-04,0.007975,0.055461,-0.00947,0.099696,0.993425,0
2241,0.096,1.1380501,9.69495,-0.19,0.064,-0.06,0.284,1.065,9.744,-0.0158125,0.0504625,-0.045375,0.0556,-0.009062,0.099177,0.993473,0
2282,0.10095,1.04205,9.762,-0.156,-0.017,0.005,0.251,1.052,9.746,-0.0510125,0.0430375,0.021724999,0.054668,-0.007226,0.098972,0.993561,0
2321,0.48795003,0.97305006,9.946051,0.222,-0.069,0.194,0.254,1.037,9.748,0.0405625,0.0089375,-0.00275,0.05401,-0.007652,0.099463,0.993544,0
2361,0.069000006,1.107,9.501,-0.176,0.049,-0.253,0.244,1.054,9.746,-0.006325,0.0185625,-0.0059125,0.054794,-0.007073,0.099071,0.993545,0
2401,0.22305001,0.99705005,9.979951,-0.01,-0.043,0.221,0.228,1.037,9.748,-0.0191125,0.02805,0.0378125,0.053888,-0.006319,0.099534,0.993553,0
2442,0.27795002,1.095,9.58005,0.049,0.05,-0.173,0.237,1.038,9.748,-0.0105875,-0.0240625,0.0026125,0.053974,-0.006745,0.099937,0.993505,0
2481,0.141,1.06605,9.793051,-0.089,0.04,0.042,0.223,1.02,9.75,-0.0776875,0.06435,0.032449998,0.052998,-0.00615,0.100162,0.993539,0
2521,0.462,0.99705005,10.06305,0.239,-0.005,0.312,0.223,0.999,9.752,0.0086625,-6.88E-04,0.0122375,0.051936,-0.006206,0.100889,0.993521,0
2562,0.108,1.07295,9.56805,-0.128,0.061,-0.162,0.223,1.015,9.751,0.0309375,0.0015125,0.004675,0.052735,-0.006139,0.100713,0.993497,0
2601,0.35700002,0.97800004,9.71595,0.131,-0.042,-0.04,0.222,1.008,9.752,-0.072325,0.037675,4.13E-04,0.05238,-0.006072,0.10096,0.993491,0
2641,0.19395001,0.9580501,10.008,-0.01,-0.03,0.242,0.199,0.983,9.755,0.0171875,0.061049998,0.0037125,0.050994,-0.004993,0.101015,0.993564,0
2681,0.22695,1.0489501,9.675,0.029,0.06,-0.082,0.202,1.002,9.753,0.0149875,-0.0166375,-0.0048125,0.051949,-0.005106,0.100927,0.993523,0
2722,0.20400001,1.06095,9.678,0.002,0.044,-0.082,0.187,1.003,9.753,-0.01155,0.0653125,0.0165,0.051955,-0.004353,0.101026,0.993516,0
2761,0.20595,1.07805,9.678,0.007,0.086,-0.083,0.183,1.002,9.753,-0.0319,-0.0347875,-0.00165,0.051826,-0.004181,0.101154,0.993511,0
2801,0.048,1.06605,9.781051,-0.135,0.076,0.024,0.176,0.986,9.755,-0.066,0.0589875,-0.0070125,0.051004,-0.003593,0.101029,0.993568,0
2841,-0.05595,1.0489501,9.844951,-0.211,0.078,0.076,0.156,0.97,9.757,-0.039325,-0.064625,0.005775,0.050081,-0.003023,0.100962,0.993624,0
2881,-0.094950005,0.87000006,10.21905,-0.256,-0.097,0.456,0.174,0.955,9.758,0.0064625,-0.097625,0.0952875,0.049442,-0.003893,0.101668,0.993581,0
2922,0.28305,0.86295,9.723001,0.058,-0.12,0.008,0.201,0.966,9.756,0.097075,-0.0603625,0.1496,0.050249,-0.005133,0.104208,0.993272,0
2961,0.33,1.0180501,9.4459505,0.097,0.025,-0.315,0.229,0.981,9.754,-0.0499125,0.0185625,0.0452375,0.051032,-0.006332,0.105958,0.993039,0
3001,0.048,1.0159501,10.188001,-0.148,0.069,0.428,0.187,0.936,9.76,-0.1106875,0.0919875,0.0473,0.048559,-0.004421,0.106721,0.993092,0
3041,0.07395,1.011,9.762,-0.113,0.076,-0.008,0.183,0.931,9.76,0.0427625,-0.088,0.0441375,0.048304,-0.004174,0.107702,0.993,0
3081,0.48795003,0.92295,9.823951,0.257,-0.016,0.06,0.219,0.928,9.76,-0.072325,-0.00605,0.0622875,0.048268,-0.006,0.108751,0.992878,0
3122,0.24705002,0.975,9.958051,0.027,0.063,0.193,0.217,0.903,9.762,-0.0276375,0.0356125,0.006875,0.047047,-0.006003,0.109381,0.992867,0
3161,0.381,0.84105,10.066051,0.144,-0.074,0.303,0.223,0.905,9.762,0.0565125,-0.0358875,0.0463375,0.047143,-0.006559,0.1099,0.992802,0
3201,0.105000004,0.99405,9.252001,-0.147,0.057,-0.51,0.243,0.937,9.758,0.05335,-0.0539,0.0037125,0.04896,-0.00709,0.110295,0.992666,0
3241,0.23205002,0.83895004,9.9199505,-0.021,-0.096,0.156,0.253,0.926,9.759,-0.0435875,0.0067375,0.06545,0.048453,-0.007585,0.110964,0.992613,0
3281,0.16305001,0.93405,9.45495,-0.121,0.026,-0.321,0.257,0.913,9.76,-0.0361625,-0.0325875,0.0697125,0.047767,-0.007878,0.112247,0.9925,0
3321,0.51495004,0.85095006,10.153951,0.231,-0.035,0.383,0.272,0.878,9.763,-0.0680625,0.0462,0.039875,0.04614,-0.008697,0.113612,0.992415,0
3361,0.20595,0.91800004,9.835951,-0.07,0.043,0.069,0.275,0.868,9.764,-0.005225,-0.046475,0.032449998,0.045651,-0.008905,0.113962,0.992395,0
3401,0.38805002,0.93000007,9.999001,0.07,0.075,0.192,0.283,0.864,9.764,-0.0191125,0.011,0.0378125,0.045478,-0.009306,0.114811,0.992302,0
3441,0.38505003,1.00395,9.970051,0.077,0.124,0.206,0.304,0.869,9.763,0.0427625,-0.0177375,-0.00165,0.045886,-0.010296,0.115144,0.992234,0
3481,0.165,1.023,9.56505,-0.144,0.123,-0.199,0.308,0.898,9.76,0.0385,-0.0433125,0.0185625,0.047413,-0.010389,0.11515,0.992161,0
3521,0.40695003,0.906,9.90795,0.089,-0.002,0.169,0.319,0.901,9.759,-0.0191125,0.0441375,0.0015125,0.047613,-0.010856,0.11552,0.992103,0
3561,0.13605,0.94200003,9.786,-0.162,0.034,0.019,0.298,0.905,9.76,0.0160875,-0.04015,-0.0133375,0.047678,-0.009825,0.115259,0.992141,0
3601,0.51000005,0.79605,10.08495,0.129,-0.115,0.319,0.321,0.905,9.759,0.0268125,-0.046475,0.0196625,0.047822,-0.010963,0.115218,0.992127,0
3642,0.35205,0.91800004,10.056001,0.1,-0.031,0.252,0.303,0.917,9.758,0.045925,0.2358125,-0.0389125,0.048315,-0.009773,0.115146,0.992124,0
3681,0.04095,0.97005004,9.90795,-0.209,0.019,0.144,0.25,0.947,9.757,0.1502875,-0.0273625,0.0196625,0.049675,-0.006878,0.115036,0.992094,0
3721,0.53595,0.95400006,9.4480505,0.257,-0.056,-0.311,0.273,1.009,9.75,0.131175,-0.086899996,0.040975,0.052969,-0.007984,0.115799,0.991827,0
3761,0.28305,1.07805,9.477,-0.022,0.037,-0.28,0.294,1.038,9.747,0.0033,0.078099996,-0.0570625,0.0544,-0.00876,0.115272,0.991804,0
3801,0.44505003,1.0999501,9.7879505,0.152,0.054,0.031,0.283,1.034,9.747,0.0416625,-0.0240625,0.0154,0.054198,-0.008313,0.114963,0.991855,0
3841,0.59400004,1.21695,9.24195,0.277,0.149,-0.536,0.322,1.061,9.743,-0.0020625,-0.0347875,-0.0528,0.055766,-0.010141,0.114612,0.991791,0
3882,0.45705003,1.131,10.33395,0.119,0.09,0.578,0.329,1.04,9.745,-0.1021625,0.037675,-0.0517,0.054592,-0.010676,0.113367,0.991994,0
3921,0.63195,1.263,10.11795,0.277,0.215,0.36,0.349,1.037,9.745,0.010725,-0.1018875,-0.0389125,0.054662,-0.011849,0.11256,0.992069,0
3961,1.0819501,1.0879501,10.35795,0.668,0.043,0.607,0.407,1.032,9.743,-0.01155,0.021724999,-0.025024999,0.05472,-0.014737,0.112047,0.992085,0
4001,0.63195,1.3770001,9.490951,0.209,0.311,-0.26,0.417,1.064,9.739,0.113025,-0.0411125,-0.034649998,0.056506,-0.015146,0.111456,0.992045,0
4041,0.72300005,1.3060501,9.642,0.273,0.193,-0.104,0.448,1.1,9.734,-0.040425,0.0484,0.0292875,0.05866,-0.01681,0.111488,0.99189,0
4081,0.39495003,1.2430501,9.43395,-0.035,0.124,-0.308,0.429,1.116,9.733,0.052249998,0.0484,-0.00275,0.059116,-0.015406,0.111931,0.991836,0
4121,-0.26205,1.0180501,8.851951,-0.649,-0.129,-0.893,0.39,1.136,9.732,-0.0094875,0.0078375,0.0452375,0.059952,-0.013317,0.112062,0.991801,0
4161,-0.040050004,0.59205,9.57495,-0.398,-0.497,-0.164,0.37,1.08,9.739,-0.1362625,0.021724999,0.092125,0.056959,-0.01254,0.113408,0.991835,0
4201,-0.63105005,0.77895004,9.75195,-0.917,-0.256,-0.01,0.304,1.017,9.748,-0.08195,0.011,0.0836,0.0534,-0.009461,0.115041,0.991879,0
4242,0.46005002,0.81705004,10.173,0.061,-0.141,0.35,0.323,0.939,9.756,-0.2608375,-0.1530375,0.10065,0.049557,-0.010791,0.116883,0.991849,0
4281,0.043050002,0.975,12.130051,-0.213,0.194,2.349,0.242,0.763,9.773,-0.5058625,0.626725,0.06545,0.040129,-0.007689,0.118061,0.992165,0
4321,0.35895002,1.5280501,11.478001,0.313,0.764,1.691,0.04,0.761,9.776,0.5135625,0.238975,0.21133749,0.038803,0.002691,0.121681,0.991806,0
4361,0.06705,1.641,7.28805,-0.002,0.558,-2.46,0.057,1.075,9.747,0.7352125,-0.0752125,-0.1901625,0.054882,0.003816,0.122028,0.991,0
4401,-0.74595004,0.63495004,8.325001,-0.773,-0.555,-1.413,0.038,1.182,9.735,-0.14795,0.1122,-0.278575,0.060002,0.005235,0.116434,0.99137,0
4442,-0.53805,-0.24195,10.99905,-0.465,-1.277,1.241,-0.065,1.045,9.75,-0.1863125,0.2624875,-0.2008875,0.05267,0.009341,0.112385,0.992223,0
4481,0.14595,0.41700003,9.505051,0.259,-0.639,-0.256,-0.123,1.047,9.749,0.247225,0.036575,-0.079475,0.052718,0.012246,0.110233,0.992431,0
4521,-0.70995003,1.0159501,8.842051,-0.571,-0.083,-0.905,-0.137,1.091,9.744,-0.020075,0.020624999,-0.180675,0.054599,0.012993,0.107413,0.992629,0
4561,-0.66195005,0.93195003,10.30305,-0.457,-0.105,0.546,-0.195,1.031,9.75,-0.1458875,0.039875,-0.0048125,0.050958,0.016088,0.105494,0.992983,0
4601,-0.31500003,1.1550001,10.39095,-0.1,0.133,0.626,-0.213,1.01,9.752,0.0650375,-0.080575,0.025024999,0.050244,0.016222,0.105946,0.992969,0
4642,-0.20205002,1.176,9.453,-0.027,0.104,-0.294,-0.163,1.066,9.747,0.1013375,-0.117837496,-0.045375,0.053387,0.013971,0.105573,0.992879,0
4681,-0.58305,0.94200003,10.08195,-0.403,-0.121,0.331,-0.168,1.06,9.747,-0.0691625,0.061049998,-0.0858,0.052981,0.01418,0.104039,0.993059,0
4721,-0.57795,0.966,10.188001,-0.334,-0.097,0.44,-0.237,1.05,9.747,0.1076625,0.0334125,0.0452375,0.05221,0.017678,0.103454,0.993105,0
4761,0.08400001,1.2100501,9.240001,0.292,0.093,-0.507,-0.208,1.108,9.741,0.113025,-0.0358875,0.0270875,0.055165,0.016521,0.104427,0.992863,0
4801,0.060000002,1.34595,9.84105,0.262,0.202,0.095,-0.209,1.133,9.738,0.0320375,0.070675,0.0367125,0.056435,0.016719,0.104942,0.992734,0
4842,0.14400001,1.5120001,9.23295,0.331,0.35,-0.526,-0.18,1.175,9.734,0.011825,-0.081675,-0.03575,0.058717,0.015476,0.105203,0.992595,0
4881,-0.18300001,1.2049501,10.19505,-0.024,0.043,0.45,-0.152,1.152,9.737,-0.1331,0.002475,-0.0411125,0.057714,0.013902,0.104081,0.992795,0
4921,0.27105,1.131,10.120951,0.407,0,0.379,-0.137,1.131,9.74,0.0587125,-0.0209,-0.0187,0.056729,0.01301,0.103999,0.992872,0
4961,-0.34395,1.332,9.225,-0.182,0.136,-0.487,-0.13,1.172,9.735,0.080025,-0.0240625,-0.0644875,0.05891,0.012797,0.102807,0.992872,0
5002,0.043050002,1.22895,9.714001,0.149,0.043,-0.023,-0.109,1.182,9.734,-0.0754875,-0.07095,-0.0240625,0.059529,0.011722,0.102105,0.992921,0
5041,-0.08805001,1.143,10.123051,0.001,-0.025,0.382,-0.082,1.155,9.737,-0.0243375,-0.0347875,-0.0240625,0.058298,0.010218,0.101491,0.993074,0
5081,-0.10395,1.131,9.786,-0.026,-0.031,0.042,-0.067,1.162,9.737,0.0650375,-0.0752125,0.007975,0.058727,0.009473,0.101279,0.993077,0
5121,-0.20205002,1.12395,9.628051,-0.137,-0.055,-0.12,-0.053,1.171,9.736,-0.005225,-0.0017875,0.006875,0.059271,0.008781,0.101332,0.993046,0
5162,-0.19305001,1.18605,9.42195,-0.134,0.011,-0.269,-0.069,1.173,9.735,0.01925,-0.012375,0.0345125,0.059265,0.009663,0.101757,0.992995,0
5201,-0.22395001,1.0830001,9.60105,-0.138,-0.07,-0.189,-0.052,1.158,9.737,-0.124575,-0.0177375,-0.00165,0.058563,0.008692,0.101967,0.993024,0
5241,-0.36495003,1.02795,10.11795,-0.28,-0.073,0.347,-0.088,1.092,9.745,-0.140525,0.06215,0.0771375,0.054896,0.010257,0.102668,0.993146,0
5281,0.025950002,1.0350001,10.365001,0.104,-0.013,0.615,-0.09,1.048,9.75,-0.0446875,0.004675,0.0793375,0.052695,0.010189,0.104431,0.993082,0
5321,-0.19095,1.30305,9.927,-0.091,0.218,0.168,-0.099,1.075,9.747,0.146025,-0.039049998,0.1123375,0.054211,0.010834,0.1061,0.992817,0
5361,0.38505003,1.33395,9.163051,0.428,0.199,-0.587,-0.047,1.135,9.74,0.012925,-0.036849998,0.0867625,0.057396,0.00868,0.10804,0.99245,0
5402,0.117000006,1.11405,10.120951,0.159,-0.005,0.376,-0.05,1.109,9.743,-0.1095875,0.1016125,0.0111375,0.055906,0.008825,0.109021,0.992426,0
5441,0.01905,0.99405,9.963,0.059,-0.098,0.211,-0.042,1.09,9.745,0.0352,-0.0581625,0.0165,0.055098,0.00826,0.109194,0.992457,0
5481,0.04605,1.0879501,9.747001,0.077,-0.024,-0.006,-0.036,1.101,9.744,0.0385,0.021724999,0.0515625,0.05568,0.008066,0.109974,0.99234,0
5521,0.096,1.15005,9.58695,0.114,0.024,-0.167,-0.019,1.119,9.742,0.052249998,-0.0518375,0.0196625,0.056747,0.007268,0.110623,0.992214,0
5561,0.013950001,1.1550001,9.634951,0.023,0.02,-0.112,-0.01,1.123,9.742,-0.056375,0.0270875,0.006875,0.056889,0.006897,0.110767,0.992192,0
5602,0.01905,1.12605,9.901051,0.028,0.014,0.143,-0.014,1.101,9.744,-0.022275,-0.0081125,0.004675,0.055834,0.006976,0.110939,0.992233,0
5641,0.02205,1.18305,9.802051,0.024,0.071,0.048,-0.01,1.099,9.744,-0.0297,0.0248875,0.025024999,0.055742,0.006804,0.111187,0.992211,0
5681,0.00195,1.2049501,9.69705,0.02,0.095,-0.06,-0.02,1.104,9.744,0.0331375,0.0163625,0.0111375,0.055909,0.007335,0.111667,0.992144,0
5721,0.11505,1.1550001,9.558001,0.115,0.03,-0.195,-0.005,1.113,9.743,-0.01375,-0.031625,0.0111375,0.056469,0.006647,0.111798,0.992103,0
5761,0.081,1.0020001,9.87405,0.08,-0.081,0.101,0,1.087,9.746,-0.1084875,0.03025,-0.0389125,0.055197,0.006187,0.111626,0.992196,0
5802,-0.27,0.85995007,10.13805,-0.265,-0.195,0.382,-0.027,1.032,9.752,-0.0968,0.022824999,-0.0059125,0.052098,0.007287,0.110967,0.99243,0
5841,-0.00405,1.0350001,10.056001,0.043,0.024,0.297,-0.042,1.01,9.754,0.0182875,0.004675,0.0697125,0.051028,0.007956,0.111802,0.992387,0
5881,0.04605,1.1880001,9.59895,0.064,0.149,-0.135,-0.022,1.036,9.751,0.0598125,-0.0507375,0.0484,0.052456,0.007113,0.112864,0.992199,0
5922,0.10305001,1.143,9.667951,0.104,0.079,-0.093,-0.009,1.051,9.75,-0.045649998,0.0174625,0.0026125,0.053211,0.006586,0.113421,0.992099,0
5961,-0.171,1.0540501,10.05405,-0.152,0.002,0.272,-0.01,1.032,9.752,-0.023375,-0.0273625,-0.011275,0.052264,0.006699,0.113167,0.992177,0
6001,0.024,1.047,9.75405,0.004,0,-0.04,-0.004,1.035,9.751,0.014025,-0.0262625,0.004675,0.052479,0.006207,0.113191,0.992166,0
6042,-0.25500003,0.975,9.946051,-0.236,-0.078,0.204,-0.009,1.032,9.752,0.0352,-0.0017875,-0.0229625,0.052336,0.006428,0.112929,0.992202,0
6081,-0.042000003,0.99195004,9.43095,-0.037,-0.065,-0.325,-0.003,1.046,9.75,0.0075625,-0.0752125,0.023924999,0.053069,0.006158,0.112856,0.992173,0
6121,0.10305001,0.89100003,10.209001,0.094,-0.128,0.447,0,1.013,9.754,-0.089375,0.071775,0.0154,0.051342,0.005913,0.113338,0.992211,0
6161,-0.043950003,0.94395006,9.82905,-0.032,-0.057,0.064,-0.008,0.997,9.755,0.0565125,-0.062425,0.022824999,0.050592,0.006151,0.113599,0.992218,0
6201,-0.00105,1.023,9.484051,-0.011,0.003,-0.273,0.011,1.018,9.753,0.0257125,-6.88E-04,0.023924999,0.051743,0.005359,0.114017,0.992115,0
6242,-0.021000002,1.0330501,9.4459505,-0.022,0.003,-0.314,0.009,1.017,9.753,-0.0339625,-0.031625,0.0174625,0.051651,0.005455,0.114427,0.992072,0
6281,-0.094950005,0.98505,9.843,-0.095,-0.013,0.077,0.013,0.992,9.756,-0.095699996,0.0163625,4.13E-04,0.050408,0.005129,0.114469,0.992133,0
6321,0,0.94605005,10.07505,-0.001,-0.015,0.305,0.001,0.955,9.759,-0.0510125,0.0132,0.0367125,0.048363,0.005552,0.114953,0.992177,0
6361,-0.00405,1.02795,9.73305,0.001,0.071,-0.035,-0.001,0.949,9.76,-0.01155,0.0067375,0.0015125,0.048145,0.00566,0.115444,0.99213,0
6401,-0.07305,0.96105003,9.802051,-0.057,0.017,0.031,-0.011,0.934,9.762,-0.072325,0.0419375,0.0037125,0.047301,0.006106,0.115432,0.992169,0
6441,-0.033,0.92505,10.111051,-0.001,0.002,0.341,-0.025,0.909,9.764,-0.01375,-0.00275,0.03025,0.045947,0.006686,0.11577,0.99219,0
6482,0.22695,1.023,9.714001,0.244,0.089,-0.079,-0.013,0.918,9.763,0.0171875,0.004675,0.0270875,0.04649,0.006136,0.116488,0.992084,0
6521,-0.076050006,0.97800004,9.74295,-0.056,0.041,-0.024,-0.011,0.925,9.762,-0.0020625,-0.00495,-0.0144375,0.04683,0.006107,0.116562,0.992059,0
6561,-0.054,0.89400005,9.85305,-0.046,-0.031,0.083,-0.007,0.916,9.763,-0.0361625,-0.0017875,0.007975,0.0464,0.005836,0.116504,0.992088,0
6601,-0.018000001,0.89895004,10.177951,0,-0.001,0.409,-0.014,0.9,9.765,-0.0072875,-0.0103125,0.0154,0.045553,0.006088,0.116764,0.992095,0
6641,-0.043950003,0.94905007,9.811951,-0.035,0.042,0.069,-0.004,0.912,9.764,0.0672375,-0.0155375,0.025024999,0.046271,0.005682,0.117077,0.992027,0
6681,-0.04695,1.0180501,9.661051,-0.039,0.073,-0.105,-0.003,0.936,9.761,0.027775,-0.0081125,0.0196625,0.047463,0.00579,0.117529,0.991917,0
6721,0.15300001,1.0849501,9.496051,0.13,0.123,-0.28,0.005,0.952,9.76,0.011825,-0.0177375,0.0430375,0.048329,0.005454,0.118106,0.991809,0
6761,0.01695,0.9990001,9.958051,-0.002,0.047,0.195,0.016,0.946,9.76,-0.066,0.0015125,-0.0176,0.048086,0.004885,0.118269,0.991804,0
6801,-0.11895001,0.915,9.936001,-0.124,-0.023,0.167,0.015,0.935,9.761,0.0257125,-0.0262625,0.0015125,0.047547,0.004815,0.117962,0.991867,0
6841,-0.07095,0.93195003,9.958051,-0.079,-0.011,0.181,0.01,0.937,9.761,0.0055,0.02915,0.0270875,0.047576,0.005128,0.118294,0.991824,0
6881,-0.030000001,1.0180501,9.670951,-0.038,0.056,-0.076,0.013,0.952,9.76,0.0512875,-0.0763125,0.032449998,0.048359,0.005119,0.118824,0.991723,0
6921,0.14400001,0.9990001,9.771001,0.104,0.035,0.006,0.031,0.958,9.759,-0.020075,0.0515625,0.0378125,0.048763,0.004286,0.119625,0.991611,0
6961,0.079050004,0.97305006,9.7879505,0.033,0.01,0.019,0.034,0.957,9.759,0.0097625,-0.045375,0.0122375,0.048723,0.004083,0.120103,0.991556,0
7001,0.01695,1.014,9.501,-0.026,0.042,-0.265,0.04,0.965,9.758,0.028875,0.0078375,0.0292875,0.0492,0.0039,0.120542,0.99148,0
7041,0.064950004,0.98505,9.73305,-0.002,0.019,-0.034,0.057,0.961,9.759,-0.0776875,-0.046475,0.022824999,0.049003,0.002986,0.120986,0.991439,0
7082,0.034050003,0.93900007,10.144951,-0.023,-0.007,0.371,0.05,0.933,9.761,0.0044,4.13E-04,0.0506,0.047631,0.003231,0.121639,0.991425,0
7121,0.14595,0.966,9.634951,0.059,0.007,-0.131,0.076,0.945,9.76,0.0182875,-0.04015,0.03355,0.048397,0.001982,0.122536,0.991281,0
7161,0.18705001,1.095,9.847951,0.095,0.144,0.086,0.081,0.945,9.76,-0.0339625,-0.0166375,0.0441375,0.048374,0.001778,0.123192,0.991201,0
7201,0.38805002,1.08105,9.81,0.278,0.135,0.045,0.108,0.943,9.76,-0.0276375,0.015262499,-0.0207625,0.048478,4.64E-04,0.123605,0.991146,0
7241,-0.025050001,1.03995,9.847951,-0.117,0.091,0.086,0.104,0.943,9.76,-0.004125,-0.022,-0.0496375,0.048476,6.27E-04,0.122667,0.991263,0
7282,-0.08505,0.97800004,9.975,-0.146,0.025,0.181,0.09,0.941,9.76,-0.0276375,0.0419375,-0.0240625,0.048244,0.001256,0.121977,0.991358,0
7321,-0.021000002,0.93900007,9.805051,-0.091,-0.011,0.031,0.077,0.937,9.761,0.0320375,-0.029424999,-0.00275,0.048023,0.00188,0.121751,0.991396,0
7361,0.18195,0.94605005,9.7900505,0.09,-0.004,0.018,0.086,0.943,9.76,-0.0180125,0.0174625,-0.0198,0.048348,0.00148,0.121605,0.991399,0
7401,-0.05595,0.95595,9.96,-0.125,0.019,0.208,0.07,0.934,9.761,0.0064625,0.0078375,-0.0218625,0.047783,0.002202,0.121136,0.991482,0
7442,0.064950004,0.90300006,9.70695,-0.004,-0.03,-0.049,0.072,0.943,9.76,0.0268125,4.13E-04,-0.0144375,0.048257,0.002136,0.120844,0.991495,0
7482,0.04605,0.85095006,9.75195,-0.04,-0.109,-0.036,0.067,0.939,9.761,-0.0180125,0.0163625,-0.0474375,0.048022,0.002371,0.120274,0.991575,0
7521,-0.19500001,0.753,9.76605,-0.216,-0.169,-0.092,0.052,0.918,9.763,-0.023375,0.03135,-0.036849998,0.04687,0.002967,0.11938,0.991737,0
7561,0.28995,0.80805004,9.814051,0.237,-0.096,0.041,0.048,0.9,9.765,0.0257125,0.038775,-0.0292875,0.045907,0.003027,0.119094,0.991816,0
7601,-0.078,0.9580501,9.58395,-0.11,0.039,-0.188,0.042,0.914,9.763,0.01925,-0.0251625,-0.079475,0.046622,0.003324,0.117746,0.991943,0
7642,0.17505,0.85095006,9.649051,0.133,-0.068,-0.134,0.057,0.911,9.763,-0.0361625,-0.014575,-0.0752125,0.046532,0.002523,0.116371,0.992111,0
7681,-0.25305,0.87000006,9.87705,-0.269,-0.013,0.094,0.036,0.884,9.766,-0.066,0.06325,-0.0922625,0.045035,0.003337,0.114717,0.992371,0
7721,-0.31305,0.83595,9.69495,-0.32,-0.04,-0.083,0.02,0.871,9.767,0.014025,-0.096525,-0.0314875,0.044305,0.003998,0.11343,0.992549,0
7761,-0.18105,0.95400006,9.667951,-0.222,0.078,-0.11,0.045,0.874,9.767,-0.040425,-0.1029875,-0.009075,0.044625,0.002723,0.113002,0.992588,0
7801,0.10305001,0.76695,10.432051,0.044,-0.074,0.648,0.051,0.837,9.77,-0.0680625,0.0462,0.038775,0.042694,0.00229,0.113367,0.992632,0
7841,0.06705,0.82395005,9.996,0.015,-0.013,0.212,0.039,0.83,9.771,0.0363,0.0451,4.13E-04,0.042351,0.00289,0.113807,0.992595,0
7882,-0.10395,0.855,9.814051,-0.109,0.007,0.035,0.013,0.836,9.77,-0.01375,0.069575,0.0185625,0.042507,0.004192,0.113838,0.99258,0
7921,0.16995001,0.87705004,9.936001,0.169,0.039,0.157,-0.006,0.832,9.771,0.0086625,0.0462,0.022824999,0.042181,0.005198,0.114446,0.992519,0
7961,0.097950004,0.87195003,9.77595,0.094,0.023,-0.004,0,0.848,9.769,0.0650375,-0.00495,-0.012375,0.043082,0.004919,0.114476,0.992479,0
8001,0.12495001,0.87195003,9.5460005,0.112,0,-0.233,0.009,0.871,9.767,0.0320375,-0.0103125,-0.0070125,0.044264,0.004592,0.114307,0.992448,0
8041,-0.05595,0.85995007,9.625051,-0.062,-0.013,-0.151,0.007,0.871,9.767,-0.0169125,0.0143,-0.0198,0.04423,0.004688,0.113982,0.992486,0
8082,0.02205,0.83400005,9.7570505,0.011,-0.03,-0.016,0.002,0.858,9.768,-0.0276375,0.0132,-0.012375,0.043566,0.004872,0.113734,0.992543,0
8121,-0.17595,0.86295,9.843,-0.153,0.011,0.063,-0.009,0.846,9.77,-0.0339625,-0.0017875,-0.0070125,0.04285,0.005403,0.113383,0.992612,0
8161,-0.03705,0.87195003,9.976951,-0.007,0.038,0.198,-0.02,0.833,9.771,-0.022275,0.0462,0.0185625,0.04212,0.005883,0.113606,0.992615,0
8201,-0.10395,0.906,9.77595,-0.066,0.06,0.035,-0.028,0.839,9.77,0.0352,-0.0103125,0.0100375,0.042385,0.006331,0.113808,0.992577,0
8241,0.096,0.95100003,9.690001,0.123,0.09,-0.085,-0.028,0.849,9.769,-0.0361625,0.0100375,0.0196625,0.042877,0.006397,0.114202,0.992511,0
8282,-0.00105,0.83895004,10.159051,0.04,-0.002,0.362,-0.028,0.832,9.771,-0.0276375,0.0430375,-0.027224999,0.042017,0.006312,0.11416,0.992553,0
8321,0.04605,0.91305006,9.850051,0.071,0.068,0.077,-0.029,0.844,9.77,0.0726,-0.011275,-5.50E-04,0.04273,0.006433,0.113943,0.992547,0
8361,-0.147,0.98205006,9.59895,-0.103,0.115,-0.179,-0.032,0.865,9.768,-0.01265,0.0323125,-0.0133375,0.043686,0.006681,0.113687,0.992533,0
8401,-0.010950001,0.90300006,9.735001,0.048,0.036,-0.043,-0.048,0.862,9.768,-0.0094875,-6.88E-04,-0.011275,0.04347,0.007477,0.113596,0.992547,0
8442,-0.363,0.84105,9.747001,-0.242,-0.002,-0.112,-0.095,0.844,9.769,-0.1362625,0.1920875,-0.00275,0.042272,0.00972,0.113234,0.992621,0
8481,-0.11895001,0.762,10.2619505,0.009,-0.035,0.51,-0.145,0.798,9.773,-0.0180125,0.0356125,0.0356125,0.039611,0.012054,0.113888,0.99263,0
8521,-0.09705,0.89895004,9.561001,0.033,0.082,-0.223,-0.128,0.816,9.771,0.05335,-0.022,0.0281875,0.04068,0.011286,0.114438,0.992532,0
8561,-0.13305001,0.9580501,9.63,0.016,0.13,-0.141,-0.139,0.823,9.771,-0.0595375,0.0430375,0.0367125,0.040913,0.011895,0.11514,0.992435,0
8601,-0.058950003,0.87195003,9.96,0.076,0.06,0.184,-0.13,0.81,9.772,-0.003025,-0.0347875,0.0154,0.04033,0.011423,0.115706,0.992398,0
8641,-0.054,0.85995007,9.85305,0.066,0.042,0.075,-0.12,0.815,9.771,-0.023375,0.021724999,0.025024999,0.04057,0.010967,0.116102,0.992347,0
8682,-0.040050004,0.87705004,9.972,0.094,0.063,0.197,-0.122,0.807,9.772,-0.01375,0.003575,0.0122375,0.040203,0.010995,0.116474,0.992318,0
8721,-0.13800001,0.91800004,9.72795,-0.013,0.096,-0.046,-0.123,0.816,9.771,0.0320375,0.015262499,0.0089375,0.040673,0.01111,0.116647,0.992278,0
8761,-0.028050002,0.92505,9.691951,0.104,0.089,-0.087,-0.132,0.822,9.771,-0.0532125,0.0493625,-5.50E-04,0.040846,0.011643,0.116924,0.992232,0
8801,-0.21900001,0.77205,10.015051,-0.079,-0.04,0.238,-0.138,0.802,9.772,-0.023375,-0.0070125,-0.0187,0.039825,0.011817,0.116673,0.992301,0
8842,-0.19305001,0.82695,9.868951,-0.051,0.017,0.088,-0.138,0.799,9.772,0.0055,-0.0166375,0.004675,0.039718,0.011782,0.116579,0.992316,0
8881,-0.15195,0.85800004,9.805051,-0.014,0.055,0.02,-0.134,0.802,9.772,0.014025,-6.88E-04,0.0111375,0.039861,0.011621,0.11675,0.992293,0
8921,-0.07095,0.90105003,9.714001,0.064,0.089,-0.06,-0.132,0.809,9.772,-0.0072875,0.0100375,-0.011275,0.040247,0.011548,0.116809,0.992271,0
8961,-0.20205002,0.80295,9.999001,-0.052,-0.013,0.224,-0.138,0.803,9.772,0.0012375,0.015262499,-0.0081125,0.039839,0.011892,0.116544,0.992314,0
9002,-0.07305,0.78795004,9.711,0.073,-0.02,-0.047,-0.141,0.811,9.772,0.0479875,-0.0081125,-5.50E-04,0.040274,0.011979,0.116605,0.992289,0
9041,-0.30495003,0.822,9.702001,-0.169,-0.004,-0.1,-0.143,0.821,9.771,-0.0083875,-0.00605,-0.00275,0.040765,0.012153,0.116341,0.992297,0
9081,-0.13995,0.753,9.7879505,-0.002,-0.062,-0.006,-0.147,0.811,9.771,-0.0105875,0.003575,0.0122375,0.040248,0.012297,0.116516,0.992296,0
9122,-0.28395,0.75000006,9.817051,-0.126,-0.058,0.034,-0.145,0.807,9.772,0.0182875,-0.0188375,-0.0166375,0.040084,0.012176,0.116408,0.992317,0
9161,-0.279,0.753,9.74505,-0.119,-0.055,-0.033,-0.153,0.803,9.772,-0.0276375,0.0015125,0.0165,0.039812,0.012562,0.116294,0.992337,0
9201,-0.21405001,0.762,10.047001,-0.04,-0.034,0.264,-0.163,0.783,9.773,-0.0265375,0.0451,0.005775,0.038739,0.012951,0.116666,0.99233,0
9241,-0.21900001,0.81195,9.802051,-0.045,0.044,0.046,-0.171,0.787,9.773,0.0385,-0.03795,0.0484,0.038902,0.013341,0.117111,0.992266,0
9281,0.010050001,0.87495005,9.526951,0.147,0.068,-0.251,-0.147,0.803,9.772,0.0097625,-0.0177375,0.0143,0.039829,0.012319,0.117909,0.992148,0
9322,-0.18795002,0.846,9.9529505,-0.028,0.051,0.169,-0.148,0.792,9.773,-0.0691625,0.0270875,0.005775,0.039201,0.01234,0.118,0.992162,0
9361,-0.042000003,0.753,9.943951,0.086,-0.033,0.168,-0.127,0.782,9.774,0.0309375,-0.0911625,0.0037125,0.038883,0.01118,0.11811,0.992175,0
9401,-0.18795002,0.786,9.735001,-0.063,-0.012,-0.049,-0.113,0.788,9.774,-0.021175,0.003575,-0.010175,0.039257,0.010488,0.117942,0.992188,0
9441,-0.19995001,0.73605,9.931951,-0.077,-0.037,0.153,-0.113,0.772,9.775,-0.0254375,-0.029424999,-0.00275,0.038454,0.010351,0.117859,0.992231,0
9481,-0.24795002,0.78105,9.76395,-0.134,0.007,-0.023,-0.114,0.769,9.775,0.027775,-0.014575,0.0122375,0.038304,0.010447,0.117921,0.992228,0
9522,-0.135,0.81000006,9.703951,-0.018,0.027,-0.077,-0.103,0.775,9.775,-0.01375,-0.0411125,0.0270875,0.038666,0.009909,0.118337,0.99217,0
9561,-0.10005,0.81495005,9.924001,0.004,0.039,0.139,-0.099,0.762,9.776,-0.040425,-0.0070125,0.023924999,0.038045,0.009662,0.118827,0.992138,0
9601,0.024,0.81495005,9.943951,0.096,0.044,0.165,-0.082,0.759,9.776,0.0149875,-0.0358875,0.0100375,0.037952,0.008791,0.119194,0.992106,0
9641,-0.064050004,0.81195,9.795,0.017,0.037,0.016,-0.072,0.765,9.776,-9.63E-04,0.0089375,-5.50E-04,0.038356,0.008334,0.119231,0.99209,0
9682,-0.030000001,0.84795004,9.85305,0.04,0.072,0.085,-0.068,0.771,9.775,0.011825,-0.0336875,-0.009075,0.038692,0.008106,0.119167,0.992086,0
9721,-0.14295001,0.83400005,9.702001,-0.074,0.046,-0.077,-0.061,0.784,9.775,0.028875,-0.022,-0.0187,0.039386,0.007858,0.118843,0.9921,0
9761,-0.123,0.77205,9.832951,-0.066,-0.022,0.058,-0.056,0.785,9.775,-0.0094875,0.015262499,-0.0059125,0.039442,0.007591,0.118519,0.992138,0
9801,-0.076050006,0.83400005,9.573001,-0.005,0.04,-0.199,-0.06,0.79,9.774,0.0022,-0.0603625,-0.0155375,0.039679,0.007873,0.11849,0.99213,0
9842,-0.34905002,0.69000006,10.096951,-0.283,-0.089,0.316,-0.057,0.77,9.776,-0.057475,0.0185625,-0.00275,0.038713,0.007537,0.11798,0.992232,0
9881,0.08400001,0.762,10.111051,0.145,-0.011,0.329,-0.062,0.761,9.776,0.043725,-0.036849998,0.055825,0.03818,0.007797,0.118807,0.992152,0
9921,-0.022950001,0.86295,9.573001,0.029,0.073,-0.213,-0.043,0.784,9.775,0.02145,0.0174625,0.0026125,0.039489,0.006959,0.119254,0.992053,0
9961,-0.03705,0.83205,9.799951,0.027,0.034,0.031,-0.054,0.781,9.775,-0.0286,0.005775,0.0026125,0.039249,0.007539,0.119368,0.992045,0
10002,-0.058950003,0.82005006,9.759001,0.002,0.041,-0.023,-0.056,0.775,9.775,-0.01375,0.03025,-0.0070125,0.038957,0.00761,0.119319,0.992062,0
10041,-0.18105,0.762,9.91005,-0.094,-0.01,0.139,-0.069,0.773,9.775,0.0033,-0.0092125,0.0015125,0.038743,0.00822,0.119194,0.99208,0
10081,-0.049050003,0.78105,9.58395,0.022,-0.003,-0.2,-0.063,0.78,9.775,0.0171875,-0.00605,4.13E-04,0.039135,0.007961,0.119283,0.992056,0
10121,-0.08505,0.74295,10.08705,-0.009,-0.03,0.302,-0.071,0.766,9.776,-0.0499125,0.0493625,4.13E-04,0.038338,0.008353,0.11931,0.992081,0
10161,-0.10005,0.79995006,9.77805,-0.006,0.025,-0.01,-0.088,0.764,9.776,0.043725,-0.00275,0.0122375,0.038173,0.009154,0.119422,0.992067,0
10202,-0.126,0.82395005,9.61305,-0.035,0.043,-0.173,-0.086,0.774,9.775,-0.0308,0.0408375,0.0100375,0.038682,0.009135,0.119657,0.992019,0
10241,-0.05595,0.72405005,9.891001,0.067,-0.05,0.138,-0.094,0.758,9.776,-0.0169125,-0.00605,0.0037125,0.037808,0.009404,0.11995,0.992015,0
10281,-0.064050004,0.70695,9.84105,0.034,-0.057,0.056,-0.088,0.751,9.777,-0.0180125,0.011,0.0165,0.037519,0.009107,0.119979,0.992025,0
10321,-0.042000003,0.76500005,10.06305,0.053,0.023,0.273,-0.094,0.739,9.778,-0.01265,0.037675,4.13E-04,0.036857,0.009366,0.120228,0.992017,0
10361,-0.052050002,0.822,9.726001,0.057,0.067,-0.052,-0.097,0.75,9.777,0.0576125,-0.0092125,0.006875,0.037582,0.009498,0.120294,0.991981,0
10401,0.055050004,0.83205,9.592051,0.136,0.062,-0.187,-0.081,0.768,9.776,-0.0339625,0.0067375,-0.0229625,0.038389,0.008851,0.120156,0.991972,0
10441,-0.21405001,0.78105,10.00605,-0.104,0.023,0.22,-0.1,0.752,9.777,0.0149875,0.0334125,-0.0198,0.037513,0.009669,0.119647,0.99206,0
10481,-0.018000001,0.75000006,9.493951,0.069,-0.014,-0.283,-0.082,0.762,9.776,-0.038225,-0.0570625,-0.0292875,0.038142,0.008806,0.11919,0.992099,0
10521,-0.26505002,0.67800003,10.308001,-0.158,-0.061,0.517,-0.1,0.728,9.779,-0.0691625,0.086625,-0.0207625,0.036236,0.009584,0.118655,0.992227,0
10561,-0.09,0.70500004,9.75405,0.037,-0.006,0,-0.104,0.729,9.778,0.0735625,-0.046475,-0.0048125,0.036326,0.009695,0.118517,0.992239,0
10601,-0.16695,0.79995006,9.711,-0.058,0.047,-0.066,-0.105,0.742,9.777,-0.0286,0.0323125,0.0089375,0.03696,0.009856,0.118448,0.992223,0
10641,0.010050001,0.80505,9.844951,0.109,0.07,0.068,-0.109,0.732,9.778,-0.021175,0.0132,-0.011275,0.036458,0.009979,0.118563,0.992226,0
10681,-0.28905,0.78405005,9.795,-0.172,0.046,0.014,-0.113,0.729,9.778,-0.01155,-6.88E-04,-0.0314875,0.036268,0.010145,0.118023,0.992296,0
10721,-0.14295001,0.70500004,9.87405,-0.028,-0.028,0.095,-0.122,0.722,9.779,-0.0020625,4.13E-04,0.0111375,0.035871,0.010533,0.117893,0.992322,0
10761,-0.076050006,0.666,9.835951,0.057,-0.064,0.04,-0.112,0.718,9.779,-0.01265,0.0067375,-0.026124999,0.035725,0.010012,0.117821,0.992341,0
10801,-0.231,0.702,9.63195,-0.098,-0.017,-0.15,-0.133,0.711,9.779,-0.0158125,0.03025,-0.00275,0.035244,0.01103,0.117419,0.992395,0
10845,-0.13800001,0.69000006,9.573001,0.004,-0.012,-0.219,-0.14,0.693,9.781,-0.0829125,0.055825,-0.0176,0.0344,0.011238,0.117397,0.992425,0
10881,-0.26700002,0.67095006,9.943951,-0.084,0.011,0.159,-0.174,0.656,9.783,-0.0680625,0.053625,0.0037125,0.032196,0.012753,0.117212,0.992502,0
10921,-0.16905001,0.58005005,9.838051,0.005,-0.065,0.049,-0.168,0.638,9.784,-0.0243375,-0.0592625,-0.0081125,0.031296,0.012306,0.117201,0.992538,0
10961,-0.27705002,0.63795,10.2289505,-0.103,0.005,0.443,-0.168,0.621,9.785,-0.0350625,0.03025,0.0037125,0.03042,0.01228,0.117122,0.992575,0
11001,-0.147,0.73800004,9.807,0.023,0.101,0.021,-0.159,0.634,9.784,0.080025,-0.0837375,0.0165,0.031248,0.011807,0.117376,0.992525,0
11042,-0.076050006,0.75000006,9.628051,0.07,0.091,-0.167,-0.138,0.657,9.783,-9.63E-04,0.022824999,-5.50E-04,0.032481,0.011001,0.117513,0.992478,0
11081,-0.09,0.642,9.88605,0.058,-0.009,0.09,-0.139,0.648,9.784,-0.0446875,-0.00275,-0.009075,0.032052,0.01099,0.117412,0.992505,0
11121,-0.076050006,0.61605,9.814051,0.069,-0.027,0.021,-0.137,0.64,9.784,0.0257125,0.0100375,-0.0081125,0.031667,0.010801,0.117259,0.992537,0
11161,-0.26205,0.642,9.60795,-0.126,-0.002,-0.182,-0.131,0.641,9.784,-0.04675,-0.031625,-0.0207625,0.031768,0.010525,0.11679,0.992592,0
11202,-0.15705001,0.58995,10.267051,-0.009,-0.023,0.469,-0.14,0.608,9.786,-0.055275,0.0259875,0.0207625,0.029965,0.010738,0.116905,0.992632,0
11241,0.01905,0.67095006,9.87195,0.143,0.056,0.074,-0.125,0.614,9.786,0.060775,-0.031625,0.005775,0.030357,0.010028,0.117267,0.992585,0
11281,-0.14505,0.70005006,9.691951,-0.012,0.062,-0.101,-0.124,0.632,9.785,0.0149875,0.036575,-0.011275,0.031305,0.010092,0.117124,0.992572,0
11321,-0.13995,0.717,9.69705,0,0.069,-0.1,-0.135,0.638,9.784,0.0022,0.0089375,-0.012375,0.031531,0.010678,0.116963,0.992578,0
11361,-0.08805001,0.66405004,9.94095,0.058,0.014,0.157,-0.126,0.639,9.784,-0.003025,0.003575,-0.0155375,0.031644,0.010207,0.116598,0.992622,0
11402,-0.028050002,0.666,9.735001,0.107,0.023,-0.046,-0.135,0.643,9.784,0.0055,0.0067375,-0.0198,0.031814,0.010678,0.116347,0.992641,0
11441,-0.15495001,0.57105005,10.023001,-0.011,-0.072,0.225,-0.14,0.63,9.785,-0.01485,0.111237496,-0.03575,0.031133,0.010845,0.115754,0.99273,0
11481,-0.37005,0.72405005,9.450001,-0.184,0.079,-0.344,-0.183,0.642,9.783,0.0490875,-0.0092125,-0.0144375,0.031536,0.013066,0.115304,0.992743,0
11521,-0.43500003,0.67800003,9.61095,-0.229,0.023,-0.181,-0.192,0.643,9.783,-0.072325,0.036575,-0.00275,0.031475,0.01355,0.115091,0.992763,0
11562,-0.40800002,0.59505004,10.152,-0.193,-0.025,0.361,-0.214,0.61,9.785,-0.0617375,-0.0188375,0.0378125,0.029692,0.014484,0.115395,0.99277,0
11601,-0.29295,0.61395,10.173,-0.079,0.006,0.36,-0.221,0.592,9.786,-0.0339625,0.005775,0.058025,0.028706,0.014729,0.116329,0.992686,0
11641,-0.246,0.609,10.173,-0.024,-0.032,0.401,-0.219,0.591,9.786,0.0565125,-0.0092125,0.0622875,0.028707,0.01468,0.117517,0.992547,0
11681,-0.123,0.65205,9.5460005,0.081,0.016,-0.25,-0.204,0.623,9.784,0.0715,-0.022,0.0600875,0.030405,0.0141,0.118679,0.992366,0
11721,-0.13800001,0.66195005,9.75195,0.062,0.02,-0.031,-0.199,0.633,9.784,-0.0083875,0.002475,0.0548625,0.030877,0.013958,0.119698,0.992231,0
11761,-0.16905001,0.60195005,9.71895,0.022,-0.037,-0.072,-0.185,0.636,9.784,0.0342375,-0.0411125,0.040975,0.031097,0.013327,0.120586,0.992126,0
11802,-0.15495001,0.63795,9.45495,0.019,-0.014,-0.331,-0.169,0.64,9.784,-0.0446875,-0.0198,0.0378125,0.031351,0.012525,0.121452,0.992023,0
11841,-0.25500003,0.55605,10.21695,-0.078,-0.062,0.428,-0.166,0.607,9.786,-0.0638,-0.0166375,0.042075,0.029654,0.012207,0.12214,0.991994,0
11881,-0.054,0.642,9.936001,0.096,0.037,0.142,-0.151,0.603,9.786,0.0416625,-0.0325875,0.0515625,0.02962,0.011426,0.123192,0.991874,0
11921,-0.126,0.70905006,9.640051,0.017,0.088,-0.156,-0.139,0.619,9.786,-0.0072875,-0.0070125,0.040975,0.030471,0.01098,0.123957,0.991758,0
11961,-0.033,0.63495004,10.011001,0.104,0.013,0.224,-0.131,0.612,9.786,-0.0169125,0.002475,0.0122375,0.03017,0.01055,0.124567,0.991696,0
12002,-0.22395001,0.67605,9.678,-0.084,0.049,-0.115,-0.133,0.618,9.786,0.02255,-0.00385,0.0015125,0.03046,0.010666,0.124613,0.99168,0
12041,-0.17400001,0.597,10.03695,-0.028,-0.025,0.237,-0.135,0.61,9.786,-0.0499125,0.022824999,0.006875,0.030023,0.010722,0.124717,0.99168,0
12081,-0.279,0.62595004,9.987,-0.12,0.006,0.197,-0.151,0.608,9.786,0.077825,-0.0017875,0.0196625,0.029819,0.011547,0.124964,0.991645,0
12121,-0.15495001,0.71400005,9.462001,-0.009,0.07,-0.332,-0.139,0.64,9.784,0.010725,-0.0177375,0.0154,0.031505,0.011174,0.125293,0.991556,0
12161,-0.078,0.58695,10.129951,0.078,-0.04,0.334,-0.146,0.626,9.785,-0.0169125,0.0334125,0.0100375,0.03073,0.011462,0.125601,0.991538,0
12201,-0.22395001,0.58995,9.670951,-0.076,-0.046,-0.114,-0.141,0.633,9.785,0.0385,-0.0273625,-0.011275,0.031137,0.011195,0.125426,0.99155,0
12241,-0.10005,0.64695,9.867001,0.057,0.009,0.075,-0.153,0.63,9.785,-0.01375,0.0345125,0.032449998,0.030928,0.011798,0.125685,0.991517,0
12282,-0.19305001,0.70695,9.69705,-0.017,0.057,-0.073,-0.146,0.637,9.784,0.0342375,-0.011275,-0.0155375,0.031314,0.011489,0.125862,0.991486,0
12321,-0.09195001,0.73305005,9.55095,0.074,0.06,-0.209,-0.142,0.647,9.784,-0.0424875,-0.022,0.006875,0.031815,0.011349,0.125786,0.991482,0
12361,-0.39600003,0.58500004,10.31505,-0.222,-0.06,0.524,-0.145,0.618,9.786,-0.0413875,4.13E-04,-0.0218625,0.030362,0.011318,0.12554,0.991559,0
12401,-0.126,0.58500004,9.89595,-0.02,-0.035,0.115,-0.127,0.621,9.786,0.0416625,-0.097625,0.0430375,0.030633,0.01046,0.125722,0.991537,0
12441,0.028950002,0.70005006,9.72795,0.134,0.062,-0.06,-0.106,0.632,9.785,0.0309375,-0.00495,0.021724999,0.031349,0.009488,0.126547,0.991419,0
12482,-0.123,0.55605,9.86505,-0.041,-0.09,0.075,-0.081,0.635,9.785,-0.01485,-0.062425,-0.0218625,0.031646,0.00822,0.126291,0.991454,0
12521,0.04095,0.58695,9.915001,0.121,-0.042,0.115,-0.08,0.628,9.786,0.029975,0.0174625,0.007975,0.031288,0.008121,0.12622,0.991475,0
12561,-0.042000003,0.67605,9.40305,0.056,0.006,-0.346,-0.07,0.648,9.784,0.0598125,0.011,-0.0496375,0.032358,0.007716,0.125802,0.991497,0
12601,-0.112050004,0.693,9.529051,-0.025,0.03,-0.264,-0.084,0.65,9.784,-0.090475,0.03135,-0.045375,0.032408,0.008425,0.124811,0.991615,0
12641,-0.05595,0.62595004,10.255051,0.045,-0.002,0.455,-0.1,0.615,9.786,-0.0265375,0.039875,-0.0485375,0.030484,0.008936,0.123967,0.991777,0
12681,-0.11595,0.74805003,9.453,-0.013,0.104,-0.333,-0.095,0.631,9.785,0.014025,-0.0231,-0.062425,0.031384,0.008779,0.122845,0.99189,0
12722,-0.27,0.65400004,10.35795,-0.142,0.046,0.564,-0.118,0.605,9.787,-0.11495,0.0823625,-0.043175,0.029923,0.009738,0.12178,0.992058,0
12761,-0.049050003,0.65895003,10.07505,0.085,0.052,0.278,-0.126,0.601,9.787,0.0917125,-0.0325875,-0.0411125,0.029762,0.010105,0.121184,0.992132,0
12801,-0.31305,0.65205,9.43395,-0.172,0.002,-0.359,-0.127,0.637,9.785,0.0331375,0.0237875,-0.0474375,0.031527,0.010376,0.120139,0.992202,0
12841,-0.08505,0.55395,9.94095,0.061,-0.082,0.143,-0.143,0.627,9.785,-0.0361625,0.03135,-0.0506,0.030856,0.011089,0.11941,0.992303,0
12881,-0.21000001,0.54405004,9.89595,-0.051,-0.086,0.102,-0.153,0.618,9.785,0.0268125,0.0132,-0.0528,0.030384,0.011511,0.11831,0.992444,0
12922,-0.25995,0.669,9.58695,-0.079,0.028,-0.196,-0.165,0.625,9.785,0.0160875,0.0356125,-0.0325875,0.030691,0.012161,0.117558,0.992517,0
12961,-0.30495003,0.72405005,9.498,-0.095,0.105,-0.277,-0.177,0.63,9.784,-0.0286,-0.0251625,0.0015125,0.030866,0.012727,0.117192,0.992547,0
13001,-0.18795002,0.70695,9.99405,-0.005,0.08,0.197,-0.172,0.614,9.785,-0.0743875,0.003575,-0.0048125,0.030092,0.0124,0.117281,0.992565,0
13041,-0.23595001,0.606,10.185,-0.086,0.016,0.387,-0.171,0.596,9.786,0.0022,-0.028324999,0.0154,0.029209,0.01228,0.11732,0.992588,0
13082,-0.08295,0.633,9.967951,0.107,0.036,0.156,-0.162,0.603,9.786,0.012925,0.0237875,0.0100375,0.029607,0.011838,0.117686,0.992538,0
13121,-0.35595003,0.69495004,9.8550005,-0.164,0.07,0.075,-0.176,0.611,9.786,0.02255,-0.0103125,0.006875,0.029896,0.012593,0.117639,0.992526,0
13161,-0.01305,0.66405004,9.826051,0.16,0.031,0.034,-0.174,0.623,9.785,0.028875,0.0163625,0.03135,0.030507,0.012599,0.118144,0.992447,0
13201,0.00195,0.65895003,9.606001,0.157,0.015,-0.182,-0.157,0.638,9.784,0.0268125,-0.0166375,0.0026125,0.031396,0.011842,0.118472,0.99239,0
13241,-0.00105,0.68295,9.63,0.155,0.039,-0.154,-0.155,0.641,9.784,-0.006325,0.03025,0.005775,0.031566,0.011739,0.118539,0.992377,0
13282,0.08400001,0.633,9.68505,0.219,-0.008,-0.101,-0.137,0.634,9.785,-0.038225,-0.0411125,-0.0292875,0.031324,0.0108,0.118358,0.992417,0
13321,-0.18795002,0.62595004,9.976951,-0.029,-0.001,0.17,-0.134,0.613,9.786,-0.047849998,0.0441375,-0.026124999,0.030265,0.010507,0.11767,0.992535,0
13361,0.19395001,0.666,9.783,0.306,0.048,-0.007,-0.115,0.605,9.787,-0.0191125,-0.0496375,-0.009075,0.029954,0.009401,0.117553,0.99257,0
13401,0.031050002,0.80505,9.970051,0.129,0.203,0.182,-0.102,0.599,9.787,-0.0328625,0.0174625,-0.0059125,0.029744,0.008807,0.117292,0.992612,0
13441,0.093,0.74505,9.69705,0.165,0.128,-0.103,-0.083,0.607,9.787,0.0171875,-0.0092125,-0.0389125,0.030293,0.007841,0.116959,0.992643,0
13481,-0.08505,0.70005006,9.450001,-0.001,0.079,-0.348,-0.079,0.615,9.787,-0.054175,-0.013475,-0.0539,0.030645,0.007661,0.115929,0.992755,0
13522,-0.08505,0.63495004,10.06305,0.01,0.047,0.262,-0.092,0.576,9.789,-0.1362625,0.0845625,-0.028324999,0.028688,0.008101,0.115176,0.992897,0
13561,0.03795,0.57795,10.26,0.122,0.032,0.464,-0.094,0.538,9.791,-0.0435875,-0.012375,-0.0155375,0.026743,0.007959,0.114869,0.992988,0
13601,-0.076050006,0.83400005,9.951,0.039,0.292,0.151,-0.107,0.537,9.791,-0.0617375,0.089925,0.0154,0.026547,0.008687,0.114915,0.992982,0
13641,-0.09,0.79305005,10.309951,0.055,0.272,0.504,-0.136,0.517,9.792,-0.0276375,0.137775,0.0686125,0.025364,0.010111,0.115923,0.992882,0
13682,-0.693,0.83895004,9.594001,-0.489,0.287,-0.2,-0.191,0.543,9.789,-0.01265,0.038775,0.0793375,0.026384,0.012962,0.117242,0.992668,0
13721,-0.78195006,0.83400005,10.152,-0.518,0.289,0.358,-0.262,0.541,9.788,-0.0584375,0.1698125,0.192225,0.025796,0.016609,0.119904,0.992311,0
13761,-0.90405005,1.2100501,9.690001,-0.556,0.612,-0.099,-0.343,0.588,9.782,0.0991375,0.0675125,0.1837,0.027621,0.021109,0.123677,0.991713,0
13801,-0.67695004,1.0830001,9.144,-0.303,0.415,-0.638,-0.363,0.66,9.777,0.0320375,-0.07205,0.0697125,0.031142,0.022581,0.126006,0.991283,0
13841,-0.60705,0.642,10.000951,-0.229,0.027,0.162,-0.358,0.621,9.78,-0.2767875,0.1155,-0.0144375,0.029123,0.022147,0.126288,0.991318,0
13882,-1.1580001,0.80505,10.00605,-0.668,0.241,0.219,-0.489,0.561,9.778,-0.01155,0.1868625,0.0089375,0.025274,0.028396,0.126215,0.991274,0
13921,-1.098,1.0519501,8.787001,-0.547,0.441,-0.987,-0.541,0.606,9.772,-0.0243375,-0.0251625,0.0686125,0.027219,0.031318,0.126818,0.991057,0
13961,-0.44895002,1.0879501,9.84105,0.117,0.485,0.061,-0.567,0.586,9.772,-0.1841125,0.0803,0.0941875,0.025955,0.032605,0.12891,0.99078,0
14001,-0.19095,1.12605,9.84105,0.361,0.556,0.059,-0.55,0.573,9.774,-0.0669625,-0.0688875,0.0122375,0.025335,0.031665,0.129962,0.990689,0
14042,-0.38895002,1.00395,10.240951,0.139,0.423,0.452,-0.521,0.57,9.776,-0.0862125,0.0473,-0.0752125,0.025885,0.030081,0.129329,0.990807,0
14081,-0.72,1.2270001,9.74295,-0.166,0.612,-0.033,-0.541,0.613,9.772,0.115225,-0.00495,-0.034649998,0.027617,0.031418,0.128204,0.990865,0
14121,-0.46305,1.47105,8.95995,0.076,0.769,-0.817,-0.524,0.716,9.766,0.08965,-0.07095,-0.0666875,0.032841,0.031224,0.127505,0.990802,0
14161,-0.80295,1.095,10.126051,-0.297,0.348,0.354,-0.506,0.74,9.765,-0.1203125,-0.0666875,-0.145475,0.034158,0.030298,0.125083,0.991094,0
14201,-0.94905007,0.78405005,11.229,-0.419,0.07,1.455,-0.52,0.705,9.767,-0.0243375,-0.013475,-0.1230625,0.032489,0.030786,0.122611,0.991444,0
14241,-0.87000006,0.52695,10.803,-0.346,-0.208,1.034,-0.508,0.727,9.766,0.16733749,-0.2105125,-0.0847,0.033767,0.030215,0.12011,0.991725,0
14282,-0.58305,0.27600002,10.794001,-0.112,-0.465,1.019,-0.459,0.738,9.768,0.0309375,-0.0485375,-0.0837375,0.034648,0.027701,0.118363,0.991979,0
14321,-0.65295005,0.36900002,10.95195,-0.177,-0.358,1.181,-0.462,0.726,9.768,0.12155,-0.0666875,-0.0400125,0.034169,0.027705,0.117107,0.992144,0
14361,-0.27195,0.54405004,9.814051,0.102,-0.229,0.036,-0.368,0.761,9.77,0.0385,-0.3202375,-0.06765,0.03633,0.023521,0.11622,0.99228,0
14401,-0.049050003,0.22305001,10.588051,0.218,-0.464,0.803,-0.251,0.662,9.781,-0.3397625,-0.1434125,-0.17847499,0.033087,0.017093,0.113872,0.992797,0
14441,-0.064050004,-0.19905001,11.68395,0.166,-0.67,1.88,-0.221,0.48,9.792,-0.3696,-0.046475,-0.162525,0.022747,0.013846,0.110286,0.993543,0
14482,-0.12795001,-0.3,11.260051,0.067,-0.64,1.451,-0.189,0.341,9.798,-0.123475,-0.0518375,-0.1475375,0.016151,0.011429,0.107302,0.994029,0
14521,0.39705002,-0.25005,9.496051,0.522,-0.558,-0.28,-0.152,0.299,9.8,1.38E-04,-0.045375,-0.1060125,0.014381,0.009359,0.105135,0.994309,0
14561,0.46905002,-0.64500004,10.37895,0.585,-0.851,0.575,-0.123,0.207,9.803,-0.2033625,0.0834625,-0.1582625,0.009888,0.007362,0.10258,0.994648,0
14601,0.20595,-0.69705003,10.341001,0.312,-0.796,0.532,-0.106,0.101,9.805,0.0565125,-0.0251625,-0.0730125,0.004584,0.005944,0.100165,0.994942,0
14641,0.73305005,-0.35505003,9.309,0.769,-0.462,-0.489,-0.061,0.094,9.805,0.0501875,0.0132,-0.036849998,0.004548,0.003629,0.09956,0.995014,0
14681,0.54405004,-0.22605,9.65205,0.549,-0.293,-0.163,-0.018,0.075,9.806,-0.0072875,0.0143,-0.1401125,0.00375,0.001297,0.097737,0.995204,0
14721,0.32595003,-0.135,9.42195,0.317,-0.191,-0.394,-0.005,0.07,9.806,0.0501875,0.061049998,-0.1753125,0.003538,6.34E-04,0.094646,0.995504,0
14761,0.06705,0.18300001,9.12495,0.086,0.073,-0.639,-0.031,0.094,9.806,0.115225,0.1016125,-0.154,0.004774,0.002113,0.091188,0.995819,0
14801,0.57000005,0.16395001,8.36295,0.566,0.038,-1.428,-0.007,0.153,9.805,0.1098625,0.0132,-0.1934625,0.007866,0.001124,0.088129,0.996077,0
14842,-0.06105,0.051000003,9.13395,-0.031,-0.116,-0.679,-0.022,0.157,9.805,-0.039325,0.1101375,-0.2402125,0.007894,0.001837,0.083794,0.99645,0
14881,0.12705001,0.07005,9.43095,0.164,-0.083,-0.38,-0.042,0.151,9.805,0.0853875,-0.00605,-0.162525,0.007533,0.002761,0.080029,0.99676,0
14921,-0.17400001,0.40800002,8.646001,-0.115,0.184,-1.169,-0.034,0.198,9.804,0.08855,0.005775,-0.154,0.009954,0.002513,0.076831,0.996991,0
14961,-0.09,0.49395,9.3,-0.03,0.26,-0.528,-0.051,0.231,9.803,0.0075625,-0.00385,-0.094325,0.011566,0.003487,0.074589,0.997141,0
15001,-0.11400001,0.61395,9.34305,-0.077,0.349,-0.473,-0.031,0.263,9.803,0.0565125,-0.036849998,-0.0485375,0.013344,0.002553,0.073096,0.997232,0
15042,-0.19995001,0.882,9.312,-0.14,0.554,-0.498,-0.05,0.317,9.801,0.0735625,0.020624999,0.0089375,0.015969,0.003724,0.072801,0.997211,0
15081,-0.32505003,1.0159501,9.34305,-0.294,0.612,-0.455,-0.041,0.382,9.799,0.0342375,-0.1007875,0.03025,0.019298,0.003559,0.073043,0.997135,0
15121,0.26595002,0.753,10.23795,0.27,0.338,0.43,-0.01,0.409,9.798,-0.1032625,-0.0347875,0.1049125,0.020796,0.002084,0.074605,0.996994,0
15161,-0.50895,0.78105,10.765051,-0.472,0.371,0.961,-0.031,0.404,9.798,0.0309375,0.06215,0.122925,0.020478,0.003214,0.076533,0.996851,0
15202,0.23205002,0.76695,10.165951,0.233,0.313,0.364,-0.001,0.449,9.796,-0.01155,-0.1667875,0.2624875,0.022825,0.001766,0.080458,0.996495,0
15241,0.42600003,0.46005002,11.701051,0.383,0.052,1.901,0.038,0.396,9.798,-0.2193125,0.1005125,0.21133749,0.020117,-1.71E-04,0.085308,0.996151,0
15281,-0.11595,0.132,11.469001,-0.133,-0.238,1.668,0.022,0.355,9.8,0.08635,-0.030524999,0.210375,0.018137,4.79E-04,0.089063,0.99586,0
15321,0.13395001,-0.24495001,11.083051,0.081,-0.591,1.272,0.039,0.345,9.8,-0.045649998,0.0441375,0.210375,0.017744,-3.85E-04,0.093217,0.995487,0
15361,-0.40095,-0.582,11.842051,-0.348,-0.843,2.088,-0.021,0.285,9.802,0.0576125,0.16445,0.1857625,0.014401,0.002526,0.096941,0.995182,0
15402,-0.13800001,-0.39105,10.501051,-0.081,-0.707,0.712,-0.055,0.299,9.801,0.18975,0.005775,0.18053749,0.015076,0.004347,0.10054,0.994809,0
15441,-0.21000001,-0.25695002,10.13805,-0.123,-0.567,0.332,-0.083,0.326,9.8,0.18755,0.1516625,0.0941875,0.016105,0.005963,0.103392,0.994492,0
15481,-0.57600003,-0.38595003,8.634001,-0.398,-0.716,-1.164,-0.148,0.349,9.799,0.1588125,0.03135,0.0185625,0.016941,0.009369,0.104349,0.994352,0
15521,-1.146,-0.55605,9.4459505,-0.918,-0.855,-0.36,-0.227,0.311,9.799,0.02035,0.1101375,0.124025,0.014553,0.013214,0.105143,0.994262,0
15562,-0.74100006,-0.20400001,8.57205,-0.45,-0.522,-1.23,-0.285,0.318,9.797,0.2046,-0.081675,0.241175,0.014562,0.016238,0.109042,0.993797,0
15601,-0.92100006,0.16605,8.51895,-0.639,-0.174,-1.284,-0.271,0.337,9.797,-0.057475,-0.080575,0.2135375,0.015469,0.01564,0.113407,0.993304,0
15641,-0.21405001,0.35700002,9.891001,0.088,0.06,0.09,-0.292,0.293,9.797,-0.0754875,-0.0273625,0.261525,0.013056,0.01654,0.118232,0.992762,0
15681,-0.246,0.633,9.012,0.018,0.311,-0.794,-0.263,0.315,9.798,0.0331375,-0.0103125,0.0686125,0.014358,0.01528,0.121229,0.992403,0
15721,-0.60495,0.60195005,9.4150505,-0.327,0.281,-0.439,-0.3,0.314,9.796,-0.141625,0.088825,0.0515625,0.014061,0.017177,0.121892,0.992295,0
15762,-0.112050004,0.573,9.964951,0.271,0.23,0.187,-0.358,0.286,9.795,-0.0105875,0.2508,0.06545,0.012246,0.019926,0.123466,0.992073,0
15801,-0.82305,0.97305006,8.691,-0.385,0.601,-1.1,-0.431,0.365,9.79,0.2195875,0.0653125,0.039875,0.015774,0.02416,0.124108,0.991849,0
15841,0.061950002,0.95100003,8.517,0.494,0.456,-1.272,-0.441,0.482,9.784,-0.020075,0.088825,0.06545,0.021604,0.025449,0.125607,0.991518,0
15881,-0.44895002,0.77595,9.976951,0.043,0.304,0.187,-0.492,0.471,9.782,-0.0595375,0.238975,-0.0655875,0.020628,0.02817,0.125645,0.99146,0
15921,-0.55395,0.86295,8.93295,-0.011,0.322,-0.856,-0.532,0.54,9.777,0.26427498,-0.0485375,-0.043175,0.023973,0.030376,0.124502,0.991464,0
15961,-0.46095002,0.99195004,8.55,0.076,0.348,-1.232,-0.525,0.632,9.772,0.028875,0.0504625,-0.0911625,0.028735,0.03067,0.123246,0.991485,0
16002,-0.46605003,0.975,9.429001,0.077,0.314,-0.344,-0.54,0.652,9.77,-0.0584375,-0.0081125,-0.1199,0.029678,0.031401,0.121254,0.99168,0
16041,-0.966,1.07295,9.982051,-0.399,0.407,0.201,-0.554,0.654,9.769,-0.0499125,-0.0166375,-0.1742125,0.029757,0.032025,0.118339,0.99201,0
16081,-0.61695004,1.047,10.341001,-0.085,0.374,0.567,-0.524,0.66,9.77,0.0055,-0.165825,-0.128425,0.030383,0.030463,0.115506,0.992374,0
16121,-0.33900002,1.0519501,10.434001,0.167,0.381,0.661,-0.493,0.666,9.771,-0.0297,0.053625,-0.1997875,0.030924,0.028939,0.112573,0.99274,0
16161,-1.131,0.96105003,10.10595,-0.627,0.276,0.335,-0.516,0.683,9.769,-0.01155,-0.14973749,-0.2754125,0.03182,0.029979,0.107499,0.993243,0
16202,-0.94905007,0.48705003,10.552051,-0.429,-0.146,0.742,-0.509,0.632,9.772,-0.2022625,-0.022,-0.17105,0.029424,0.029204,0.103195,0.993796,0
16241,-1.1389501,0.30705002,11.149951,-0.604,-0.245,1.364,-0.523,0.542,9.777,-0.11385,-0.112475,-0.0974875,0.024767,0.029232,0.100528,0.994196,0
16281,-0.078,0.132,11.193001,0.431,-0.377,1.41,-0.425,0.483,9.785,-0.122375,-0.3224375,0.0089375,0.022484,0.024372,0.099898,0.994444,0
16321,0.48795003,0.079950005,11.316001,0.798,-0.341,1.512,-0.32,0.407,9.792,-0.139425,-0.0655875,-0.1390125,0.019046,0.018338,0.098885,0.994747,0
16361,-0.01305,-0.20895001,11.196,0.312,-0.514,1.412,-0.27,0.32,9.797,-0.089375,0.0015125,-0.27335,0.01496,0.015306,0.094744,0.995271,0
16402,-0.10005,-0.40995002,10.5060005,0.081,-0.651,0.715,-0.242,0.27,9.799,-9.63E-04,-0.1243,-0.2105125,0.012614,0.013434,0.089556,0.995811,0
16441,0.093,-0.46305,10.2619505,0.305,-0.681,0.454,-0.223,0.218,9.801,-0.0308,0.1186625,-0.1827375,0.010069,0.012416,0.08596,0.99617,0
16481,-0.03705,-0.46800002,9.8220005,0.179,-0.643,0.045,-0.234,0.181,9.802,0.064075,-0.0081125,-0.127325,0.008236,0.012669,0.083034,0.996432,0
16521,-0.040050004,-0.23805001,9.41205,0.205,-0.414,-0.404,-0.227,0.159,9.802,0.0683375,0.052525,-0.062425,0.007169,0.012234,0.081221,0.996595,0
16561,0.064950004,0.010050001,9.036,0.284,-0.165,-0.745,-0.217,0.165,9.802,0.0331375,0.036575,-0.088,0.007571,0.011751,0.07991,0.996704,0
16601,-0.32700002,0.076950006,9.622951,-0.097,-0.089,-0.186,-0.229,0.157,9.802,-0.0158125,-0.0155375,-0.034649998,0.007066,0.012271,0.078362,0.996824,0
16641,0.141,0.26895002,9.181951,0.35,0.078,-0.622,-0.214,0.18,9.802,0.148225,-0.00495,0.040975,0.008441,0.011643,0.078781,0.996788,0
16681,-0.066,0.63495004,8.542951,0.138,0.373,-1.261,-0.192,0.253,9.801,0.12375,0.004675,0.022824999,0.012888,0.010708,0.07927,0.996712,0
16721,0.105000004,0.81705004,8.526,0.269,0.466,-1.272,-0.173,0.35,9.798,0.1684375,-0.0262625,0.0633875,0.01713,0.010267,0.080121,0.996585,0
16761,0.24195,1.07805,7.9129505,0.363,0.618,-1.881,-0.132,0.457,9.795,0.062975,-0.031625,-0.0314875,0.022768,0.008583,0.080596,0.996449,0
16802,-0.009000001,0.74100006,9.237,0.111,0.259,-0.559,-0.111,0.474,9.794,-0.099,0.0067375,-0.086899996,0.02366,0.007578,0.079199,0.996549,0
16841,-0.043950003,0.75000006,9.382951,0.069,0.28,-0.424,-0.11,0.468,9.794,-0.022275,-0.0017875,-0.03355,0.023357,0.007494,0.078023,0.996649,0
16881,0.00705,0.92505,9.534,0.1,0.421,-0.259,-0.101,0.491,9.793,-0.0243375,0.0356125,0.005775,0.024581,0.007099,0.077871,0.996635,0
16921,0.04605,1.0830001,9.673051,0.142,0.553,-0.121,-0.101,0.522,9.792,0.0235125,-0.030524999,0.0782375,0.026201,0.007229,0.078706,0.996527,0
16961,0.25605002,1.1520001,9.58905,0.309,0.568,-0.2,-0.064,0.575,9.789,0.0149875,-0.0070125,0.06655,0.028996,0.005598,0.080261,0.996336,0
17001,0.072000004,1.014,10.24995,0.122,0.406,0.454,-0.054,0.601,9.788,-0.01155,0.021724999,0.0814,0.030332,0.005282,0.081636,0.996186,0
17042,0.012,0.83895004,10.606951,0.043,0.233,0.796,-0.041,0.628,9.786,0.0363,-0.03795,0.1101375,0.031787,0.004803,0.083469,0.995991,0
17081,-0.12795001,0.80805004,11.29605,-0.077,0.151,1.505,-0.045,0.638,9.785,0.010725,0.061049998,0.1634875,0.032263,0.005119,0.086144,0.995747,0
17122,0.30195,0.61095005,10.84395,0.326,-0.05,1.056,-0.025,0.65,9.785,0.014025,-0.07095,0.1379125,0.032923,0.00425,0.089245,0.995456,0
17161,-0.279,0.25005,10.81995,-0.24,-0.358,1.026,-0.033,0.6,9.788,-0.1766875,0.121825,0.0506,0.030156,0.004593,0.090898,0.995392,0
17201,-0.34605002,-0.09195001,11.919001,-0.209,-0.586,2.164,-0.09,0.477,9.794,-0.2556125,0.0738375,0.1623875,0.023823,0.006837,0.092688,0.995386,0
17241,-0.13800001,-0.096,11.514001,-0.012,-0.484,1.711,-0.123,0.389,9.798,0.0352,0.0771375,0.1612875,0.019169,0.008192,0.096117,0.995151,0
17282,-0.15495001,0.028950002,10.36305,-0.037,-0.396,0.608,-0.141,0.399,9.797,0.1258125,0.086625,0.1698125,0.019541,0.009201,0.099184,0.994834,0
17321,-0.25305,0.147,9.096001,-0.042,-0.297,-0.656,-0.177,0.435,9.795,0.1354375,0.1016125,0.0537625,0.021311,0.011379,0.101714,0.99452,0
17361,-1.131,-0.19695,9.369,-0.895,-0.606,-0.437,-0.234,0.415,9.795,-0.1106875,0.072875,-0.044275,0.019739,0.014105,0.101122,0.994578,0
17401,-0.957,-0.40800002,10.2619505,-0.604,-0.712,0.46,-0.348,0.317,9.795,0.010725,0.1420375,0.082499996,0.014294,0.019346,0.101606,0.994533,0
17441,-0.95205003,-0.19695,8.80605,-0.525,-0.525,-0.993,-0.414,0.334,9.792,0.1854875,0.0174625,0.091025,0.014955,0.022819,0.103323,0.994273,0
17481,-1.0519501,0.058050003,8.78205,-0.574,-0.289,-1.017,-0.474,0.344,9.789,-0.0286,0.141075,0.143275,0.014924,0.025897,0.105252,0.993996,0
17522,-0.82305,0.40800002,9.346951,-0.243,0.061,-0.44,-0.576,0.335,9.783,0.100237496,0.13255,0.1837,0.01381,0.031075,0.108714,0.993491,0
17561,-0.64305,0.85995007,7.6500006,-0.041,0.434,-2.138,-0.604,0.443,9.777,0.15345,-0.00385,0.082499996,0.019049,0.033185,0.111348,0.993044,0
17601,-0.813,0.42900002,8.976001,-0.163,-0.006,-0.8,-0.64,0.428,9.776,-0.258775,0.124025,0.006875,0.017792,0.035022,0.111941,0.992938,0
17641,-1.05495,0.33600003,9.77595,-0.339,-0.026,-0.008,-0.709,0.353,9.774,-0.01155,0.0749375,0.0292875,0.013856,0.037985,0.112335,0.992847,0
17681,-0.86805004,0.51795,8.410951,-0.143,0.122,-1.368,-0.712,0.396,9.772,0.0746625,-0.131725,0.06765,0.01596,0.038407,0.113255,0.992695,0
17722,-0.624,0.54405004,9.27105,0.08,0.146,-0.512,-0.695,0.381,9.774,-0.172425,0.0738375,0.059125,0.015253,0.037464,0.11467,0.992579,0
17761,-0.78900003,0.76905006,9.28005,-0.051,0.384,-0.497,-0.723,0.38,9.772,0.0363,-0.0528,0.0495,0.015003,0.038946,0.115758,0.9924,0
17801,-0.30105,0.96795005,9.015,0.357,0.537,-0.772,-0.655,0.428,9.775,-0.0350625,-0.063525,-0.0059125,0.017837,0.035777,0.116426,0.992394,0
17841,-0.76500005,0.95400006,9.501,-0.113,0.517,-0.282,-0.648,0.433,9.775,-0.1117875,-0.0411125,-0.1082125,0.01803,0.03538,0.115158,0.992553,0
17881,-0.97305006,0.88905007,10.221001,-0.316,0.468,0.411,-0.65,0.415,9.776,-0.0979,-0.0188375,-0.0741125,0.017282,0.035369,0.113412,0.992767,0
17922,-0.6,0.85305005,10.20195,0.033,0.413,0.437,-0.629,0.427,9.777,-0.0072875,-0.098725,-0.0581625,0.018083,0.034363,0.112398,0.992904,0
17961,-0.92295,0.77895004,11.028001,-0.291,0.337,1.241,-0.62,0.438,9.777,-0.0169125,-0.022,-0.0741125,0.01873,0.033935,0.110976,0.993066,0
18001,-0.64305,0.83205,10.948951,-0.042,0.35,1.16,-0.597,0.479,9.776,0.1747625,-0.164725,-0.010175,0.021166,0.03287,0.110209,0.993139,0
18041,-0.40395,0.89595,10.114051,0.134,0.315,0.33,-0.529,0.569,9.775,0.1428625,-0.1274625,-0.1219625,0.025935,0.030016,0.109,0.993249,0
18082,-0.67200005,0.537,10.618951,-0.189,0.001,0.737,-0.489,0.566,9.778,-0.1841125,-0.122099996,-0.17215,0.026118,0.027883,0.105779,0.993655,0
18121,0.08895,0.27600002,12.046051,0.529,-0.186,2.254,-0.447,0.458,9.785,-0.188375,-0.0262625,-0.1508375,0.020739,0.025082,0.102819,0.994167,0
18161,0.23700002,-0.043950003,11.433001,0.589,-0.422,1.634,-0.358,0.381,9.792,-0.2011625,-0.3234,-0.345675,0.017579,0.0201,0.098234,0.994805,0
18201,-0.31005,-0.75495005,12.361951,-0.017,-0.967,2.553,-0.281,0.218,9.8,-0.2684,0.1122,-0.3542,0.009525,0.015433,0.090578,0.995724,0
18242,-0.55005,-0.43605003,10.497001,-0.175,-0.592,0.88,-0.373,0.175,9.797,0.2930125,0.1783375,-0.1508375,0.007274,0.019724,0.086137,0.996061,0
18281,-0.16905001,-0.132,8.17905,0.221,-0.423,-1.622,-0.385,0.3,9.794,0.3878875,-0.1370875,-0.0922625,0.013994,0.020743,0.08383,0.996165,0
18321,0.342,-0.48900002,9.23505,0.65,-0.796,-0.561,-0.309,0.319,9.796,-0.1084875,0.03135,-0.113575,0.014829,0.017086,0.081713,0.996399,0
18362,0.072000004,-0.39105,10.044001,0.4,-0.612,0.239,-0.333,0.229,9.798,-0.0435875,0.0749375,-0.121,0.010323,0.01788,0.079506,0.99662,0
18401,-0.04695,-0.18,9.774,0.261,-0.388,-0.033,-0.302,0.211,9.799,0.0939125,-0.0325875,-0.117837496,0.009563,0.016196,0.077137,0.996843,0
18441,-0.67695004,0.381,8.802,-0.339,0.12,-0.998,-0.328,0.26,9.797,0.22385,0.0473,-0.0081125,0.012427,0.018308,0.075524,0.996898,0
18481,0.32805002,0.81495005,8.433001,0.632,0.434,-1.363,-0.305,0.371,9.794,0.1269125,-0.0325875,0.109175,0.017706,0.016974,0.076936,0.996734,0
18521,0.37800002,0.83895004,8.658,0.626,0.388,-1.144,-0.257,0.444,9.793,0.111925,-0.022,-0.009075,0.021578,0.014881,0.078059,0.996604,0
18562,0.12900001,0.79095006,8.224951,0.333,0.28,-1.551,-0.195,0.51,9.791,0.0598125,-0.079475,-0.0719125,0.025187,0.011946,0.077111,0.996632,0
18601,-0.021000002,0.52305,9.45495,0.158,0.011,-0.339,-0.172,0.506,9.792,-0.121275,0.005775,-0.079475,0.024955,0.010713,0.075683,0.996761,0
18641,-0.351,0.55095005,9.508051,-0.164,0.057,-0.285,-0.175,0.488,9.792,0.062975,-0.013475,-0.010175,0.024194,0.010802,0.074621,0.996859,0
18681,-0.147,1.023,8.63895,0.038,0.47,-1.14,-0.173,0.552,9.789,0.0587125,-0.0209,0.0600875,0.027434,0.010955,0.075185,0.996731,0
18722,-0.16905001,1.215,9.004951,-0.006,0.618,-0.783,-0.185,0.593,9.786,-0.0191125,0.06435,0.0686125,0.029441,0.011721,0.076366,0.996576,0
18761,-0.033,1.26495,8.88105,0.157,0.616,-0.903,-0.184,0.636,9.784,-0.0158125,0.011,0.0611875,0.031635,0.011921,0.0778,0.996395,0
18801,-0.42495003,1.22895,9.76605,-0.201,0.551,-0.084,-0.214,0.674,9.781,-0.0499125,0.06215,0.0952875,0.033459,0.013622,0.079185,0.996205,0
18841,-0.15705001,0.82905006,10.771951,0.055,0.152,0.924,-0.204,0.677,9.781,-0.0435875,-0.0539,0.143275,0.033556,0.013137,0.081653,0.996009,0
18882,-0.37995002,0.94395006,11.466001,-0.151,0.26,1.673,-0.215,0.679,9.78,0.0704,0.0856625,0.2294875,0.033662,0.014002,0.085334,0.995685,0
18921,0.19605,1.2,10.52505,0.395,0.437,0.739,-0.204,0.761,9.774,0.1727,-0.028324999,0.2209625,0.037747,0.01389,0.089918,0.995136,0
18961,-0.58095,0.93900007,10.588051,-0.336,0.129,0.812,-0.21,0.81,9.77,0.0405625,0.120725,0.1016125,0.040199,0.014548,0.092828,0.994763,0
19001,-0.633,0.49905002,10.90095,-0.367,-0.298,1.124,-0.259,0.788,9.771,-0.1106875,4.13E-04,0.1304875,0.038696,0.016973,0.095106,0.994569,0
19042,-0.21000001,-0.04095,11.746051,0.05,-0.707,1.96,-0.254,0.666,9.78,-0.39833748,0.02805,0.105875,0.0322,0.016227,0.09762,0.99457,0
19081,-1.0720501,-0.41205,13.21695,-0.732,-0.861,3.421,-0.33,0.452,9.79,-0.309925,0.3114375,0.2028125,0.020975,0.019329,0.100336,0.994544,0
19121,-0.507,0.16800001,10.686001,-0.076,-0.281,0.891,-0.427,0.452,9.786,0.39105,0.0121,0.4148375,0.020235,0.024128,0.106794,0.993782,0
19161,-0.49905002,0.45105,8.3560505,-0.102,-0.146,-1.431,-0.385,0.601,9.78,0.280225,-0.0859375,0.3040125,0.028224,0.023042,0.113867,0.992827,0
19201,-0.45105,0.18300001,9.08895,-0.069,-0.459,-0.693,-0.38,0.636,9.778,-0.0446875,0.0930875,0.2146375,0.029909,0.023191,0.118777,0.992199,0
19242,-0.6,0.14400001,9.357,-0.173,-0.465,-0.421,-0.425,0.602,9.778,0.0598125,0.061049998,0.10065,0.02789,0.025374,0.121881,0.991828,0
19281,-0.88005006,0.00105,9.1060505,-0.442,-0.601,-0.68,-0.428,0.601,9.778,-0.01265,-0.030524999,0.0270875,0.02776,0.025467,0.122808,0.991715,0
19321,-1.11195,0.13995,9.679951,-0.6,-0.413,-0.107,-0.522,0.539,9.777,-0.003025,0.1783375,0.1442375,0.023974,0.029864,0.12427,0.991509,0
19361,-0.55395,0.61800003,8.703,0.014,0.034,-1.07,-0.559,0.578,9.773,0.1843875,-0.036849998,0.1794375,0.025798,0.032062,0.127719,0.990956,0
19401,-0.70005006,0.93900007,8.514,-0.133,0.276,-1.256,-0.562,0.65,9.768,0.0416625,0.0600875,0.13145,0.029187,0.032788,0.130457,0.990481,0
19442,-0.50895,1.00395,8.698951,0.071,0.289,-1.061,-0.574,0.691,9.765,0.054449998,-0.04015,0.089925,0.031108,0.033756,0.132734,0.990088,0
19481,-0.64305,0.89400005,8.62005,-0.083,0.158,-1.155,-0.556,0.726,9.763,-9.63E-04,0.011,0.0281875,0.03295,0.033137,0.133756,0.989911,0
19521,-0.81795,1.02495,8.9740505,-0.206,0.299,-0.824,-0.596,0.749,9.759,0.0044,0.0473,0.0463375,0.033803,0.035334,0.134416,0.989717,0
19561,-0.42000002,1.21905,8.80605,0.194,0.426,-0.957,-0.602,0.786,9.756,0.011825,4.13E-04,0.025024999,0.03559,0.035934,0.135349,0.989506,0
19601,-0.73905003,1.2,8.6629505,-0.136,0.4,-1.078,-0.583,0.824,9.754,0.0012375,-0.086899996,-0.129525,0.037726,0.035181,0.134264,0.989601,0
19642,-0.91605,0.93900007,9.316051,-0.346,0.137,-0.534,-0.592,0.796,9.756,-0.2789875,-0.0433125,-0.117837496,0.036323,0.035359,0.131592,0.990007,0
19681,-0.88995004,0.76905006,10.96605,-0.276,0.092,1.227,-0.608,0.683,9.763,-0.2044625,0.0163625,-0.1093125,0.03039,0.035333,0.129531,0.990479,0
19721,-0.73605,1.1380501,10.16205,-0.125,0.441,0.397,-0.608,0.69,9.763,0.098175,-0.0902,-0.0517,0.031084,0.035254,0.128179,0.990636,0
19761,-0.64995,1.30305,9.879001,-0.054,0.53,0.086,-0.57,0.749,9.761,0.012925,-0.081675,-0.128425,0.034261,0.033723,0.126608,0.990787,0
19801,-0.72705,1.03005,10.815001,-0.163,0.278,1.052,-0.558,0.743,9.762,-0.1522125,-0.0826375,-0.1667875,0.033986,0.032908,0.123414,0.991226,0
19841,-0.58305,0.49605003,12.192,-0.02,-0.182,2.422,-0.551,0.672,9.767,-0.1288375,0.039875,-0.1881,0.0302,0.031938,0.119996,0.9918,0
19881,-0.186,0.42195,11.29905,0.342,-0.218,1.519,-0.519,0.64,9.771,0.05555,-0.1551,-0.16995,0.029421,0.030018,0.116531,0.992297,0
19921,0.072000004,0.16395001,11.32995,0.501,-0.428,1.539,-0.433,0.591,9.779,-0.1788875,-0.1167375,-0.2605625,0.027349,0.025256,0.112285,0.992978,0
19961,-0.09,-0.079950005,11.560051,0.306,-0.538,1.762,-0.388,0.466,9.787,-0.21615,0.0015125,-0.330825,0.021524,0.022249,0.106628,0.993816,0
20001,-0.44895002,-0.076950006,10.410001,-0.068,-0.452,0.614,-0.381,0.383,9.791,-0.0254375,0.0100375,-0.348975,0.017555,0.02131,0.100435,0.99456,0
20042,-0.246,0.13995,9.043051,0.142,-0.216,-0.762,-0.387,0.352,9.792,-0.01375,-0.013475,-0.2765125,0.015997,0.021332,0.094124,0.995203,0
20081,-0.29805002,-0.13905,9.517051,0.102,-0.423,-0.287,-0.388,0.287,9.794,-0.171325,0.0430375,-0.2904,0.012658,0.021072,0.088522,0.99577,0
20121,-0.37695003,-0.19500001,9.71895,0.038,-0.399,-0.084,-0.406,0.208,9.796,-0.037125,0.022824999,-0.23925,0.008851,0.021552,0.083528,0.996233,0
20161,-0.094950005,-0.20700002,9.43095,0.303,-0.379,-0.372,-0.383,0.174,9.797,-0.0424875,-0.0677875,-0.1881,0.007312,0.020201,0.079515,0.996602,0
20201,-0.37695003,-0.28605002,9.786,-0.009,-0.394,-0.02,-0.36,0.096,9.799,-0.122375,0.039875,-0.1582625,0.003493,0.018713,0.076002,0.996925,0
20242,-0.17595,0.17805001,9.193951,0.209,0.028,-0.495,-0.387,0.098,9.798,0.22385,0.0771375,-0.0048125,0.003517,0.020102,0.074601,0.997004,0
20281,-0.18300001,0.71895003,7.5019503,0.18,0.474,-2.306,-0.354,0.238,9.797,0.2355375,-0.1667875,-0.0144375,0.010763,0.018907,0.074411,0.99699,0
20321,-0.028050002,0.642,8.566951,0.271,0.346,-1.23,-0.298,0.293,9.797,-0.045649998,-0.0188375,0.0185625,0.013794,0.016284,0.074413,0.996999,0
20361,0.097950004,0.84405005,8.754001,0.363,0.498,-1.025,-0.281,0.319,9.797,0.02255,-0.061325,0.0154,0.01516,0.015512,0.074857,0.996958,0
20402,-0.25500003,0.77400005,9.1699505,0.027,0.423,-0.657,-0.231,0.367,9.797,-0.0361625,-0.03795,-0.0292875,0.017789,0.013155,0.074522,0.996973,0
20441,-0.049050003,0.78795004,9.462001,0.152,0.402,-0.343,-0.22,0.387,9.796,0.011825,-0.0231,0.0185625,0.018889,0.012651,0.074555,0.996957,0
20481,-0.20700002,0.78105,9.8550005,0.006,0.365,0.051,-0.21,0.41,9.795,-0.0083875,0.0356125,0.0452375,0.020075,0.012326,0.075039,0.996902,0
20521,-0.13800001,0.79605,9.735001,0.085,0.34,-0.068,-0.221,0.449,9.793,0.095975,0.0067375,0.06655,0.022011,0.013004,0.076315,0.996755,0
20562,-0.21900001,0.63000005,10.354951,-0.018,0.15,0.504,-0.213,0.492,9.791,0.010725,0.0143,0.1038125,0.024212,0.0128,0.077714,0.996599,0
20601,-0.034950003,0.48900002,10.99695,0.179,-0.02,1.159,-0.221,0.498,9.791,0.0746625,0.1101375,0.1731125,0.024515,0.013436,0.080791,0.996338,0
20641,-0.423,0.79305005,10.18305,-0.172,0.217,0.387,-0.25,0.572,9.786,0.2759625,-0.0155375,0.2156,0.028299,0.015162,0.084455,0.995909,0
20681,0.19905001,0.77895004,9.525001,0.397,0.129,-0.262,-0.207,0.646,9.783,-0.091437496,-0.0655875,0.177375,0.031806,0.013377,0.088442,0.995483,0
20721,-0.53805,0.075,11.99295,-0.296,-0.457,2.196,-0.235,0.525,9.789,-0.3333,0.23265,0.1123375,0.025584,0.014374,0.09079,0.995437,0
20762,-0.57405,0.015000001,11.481001,-0.285,-0.427,1.675,-0.284,0.442,9.792,0.0726,-0.0996875,0.193325,0.02109,0.016577,0.093964,0.995214,0
20801,-0.6,-0.094050005,10.894051,-0.311,-0.504,1.089,-0.289,0.421,9.793,-0.090475,0.138875,0.208175,0.019944,0.016818,0.097741,0.994869,0
20841,-0.66,-0.156,11.16705,-0.29,-0.517,1.362,-0.363,0.367,9.793,0.0661375,0.13035,0.2624875,0.016794,0.020496,0.102469,0.994383,0
20881,-0.52095,0.034050003,9.538951,-0.141,-0.37,-0.257,-0.374,0.399,9.791,0.1034,-0.0485375,0.207075,0.018211,0.021197,0.106971,0.993869,0
20921,-0.54495,-0.07005,9.86205,-0.151,-0.439,0.069,-0.395,0.369,9.791,-0.0297,0.069575,0.142175,0.016506,0.022107,0.110352,0.993509,0
20962,-0.74100006,-0.19695,9.628051,-0.322,-0.53,-0.176,-0.412,0.34,9.792,0.0012375,-0.013475,0.0697125,0.014885,0.022848,0.112184,0.993313,0
21001,-1.3590001,-0.14400001,9.525001,-0.882,-0.454,-0.269,-0.466,0.32,9.79,0.0939125,0.038775,0.1166,0.013524,0.025485,0.113714,0.993094,0
21041,-0.68100005,0.19005,8.814,-0.186,-0.173,-0.975,-0.493,0.352,9.787,0.098175,-0.028324999,0.1953875,0.014897,0.027122,0.116992,0.99265,0
21081,-0.84705,0.28095,9.160951,-0.326,-0.083,-0.633,-0.528,0.354,9.785,-0.022275,0.0504625,0.1271875,0.014712,0.028951,0.12002,0.99224,0
21121,-0.58995,0.46800002,8.77005,-0.051,0.062,-0.985,-0.547,0.375,9.784,0.100237496,-0.00385,0.124025,0.015592,0.030087,0.122427,0.991898,0
21161,-0.51600003,0.63495004,8.67195,0.066,0.204,-1.16,-0.557,0.407,9.782,-0.0328625,0.0845625,0.0845625,0.017088,0.030829,0.124466,0.991597,0
21201,-0.78405005,0.71895003,9.151051,-0.183,0.29,-0.64,-0.592,0.418,9.779,0.01925,0.0132,0.092125,0.017363,0.032695,0.126011,0.991337,0
21241,-0.492,0.88905007,8.896951,0.108,0.417,-0.883,-0.599,0.47,9.777,0.098175,0.0408375,0.117699996,0.020693,0.033478,0.128304,0.990953,0
21281,-0.42495003,1.1520001,8.398951,0.169,0.574,-1.382,-0.592,0.57,9.772,0.095975,-0.0528,0.025024999,0.024918,0.033742,0.129711,0.990664,0
21321,-0.80100006,1.07805,8.514,-0.201,0.456,-1.256,-0.588,0.619,9.769,-0.089375,-0.0092125,-0.086899996,0.027482,0.033874,0.128875,0.9907,0
21361,-0.89895004,0.83205,9.943951,-0.285,0.257,0.172,-0.613,0.572,9.77,-0.2022625,0.021724999,-0.093225,0.024815,0.034788,0.127012,0.99098,0
21402,-0.72195005,0.87000006,10.209001,-0.108,0.312,0.471,-0.625,0.545,9.771,0.0268125,-0.0603625,-0.0655875,0.023622,0.035123,0.125619,0.991175,0
21441,-0.70995003,1.095,9.8220005,-0.08,0.503,0.035,-0.602,0.599,9.769,0.0320375,-0.04015,-0.1007875,0.02663,0.034306,0.124003,0.991331,0
21481,-0.669,0.93195003,11.067,-0.08,0.317,1.289,-0.587,0.608,9.77,-0.0680625,-0.113575,-0.1326875,0.027107,0.033407,0.121709,0.991633,0
21521,-0.66705,0.95595,11.538,-0.097,0.335,1.765,-0.569,0.621,9.77,0.1577125,-0.00385,-0.129525,0.028003,0.032654,0.119207,0.991937,0
21561,-0.12795001,0.76905006,10.408051,0.386,0.06,0.637,-0.504,0.704,9.768,0.1502875,-0.230725,-0.22,0.032734,0.029748,0.115854,0.99228,0
21602,-0.66195005,0.22305001,11.055,-0.198,-0.457,1.273,-0.458,0.657,9.773,-0.1874125,-0.036849998,-0.2850375,0.030731,0.026977,0.110483,0.993036,0
21641,-0.41805002,-0.41205,12.26805,0.03,-0.904,2.474,-0.438,0.495,9.784,-0.3993,-0.10615,-0.27005,0.022417,0.024799,0.105311,0.993877,0
21681,-0.633,-0.67800003,13.23795,-0.213,-0.962,3.431,-0.412,0.294,9.793,-0.2619375,0.0515625,-0.187,0.012597,0.022515,0.100835,0.994568,0
21721,-0.109050006,-0.01995,10.566001,0.348,-0.293,0.763,-0.459,0.286,9.791,0.3345375,0.086625,-0.0048125,0.011907,0.024643,0.099386,0.994672,0
21761,0.29505002,0.53205,8.00205,0.754,0.118,-1.791,-0.469,0.417,9.786,0.282425,0.0600875,-0.110275,0.018859,0.025933,0.098486,0.994621,0
21801,0.30600002,0.132,8.679001,0.791,-0.312,-1.108,-0.494,0.432,9.784,-0.1266375,0.12925,-0.23815,0.019699,0.02707,0.095128,0.994901,0
21842,-0.010950001,-0.252,9.70905,0.541,-0.588,-0.088,-0.544,0.339,9.785,-0.1777875,0.1601875,-0.2657875,0.01473,0.029227,0.090033,0.9954,0
21881,-0.47100002,-0.09900001,9.75405,0.108,-0.383,-0.033,-0.573,0.291,9.785,0.1599125,0.0653125,-0.160325,0.012294,0.030404,0.085713,0.995779,0
21921,-0.37995002,0.48405004,8.056951,0.204,0.101,-1.733,-0.571,0.379,9.782,0.2611125,-0.030524999,-0.0240625,0.016861,0.030698,0.083941,0.995855,0
21962,-0.14505,0.78105,7.9560003,0.409,0.295,-1.853,-0.534,0.482,9.78,0.111925,-0.04015,0.005775,0.022252,0.029253,0.08391,0.995795,0
22001,-0.09195001,0.9580501,8.11695,0.381,0.38,-1.634,-0.49,0.545,9.779,0.0331375,-0.0774125,-0.028324999,0.025625,0.027243,0.083706,0.995788,0
22045,-0.040050004,0.83205,8.871,0.396,0.267,-0.968,-0.437,0.563,9.78,-0.0691625,-0.0539,-0.06875,0.026797,0.024626,0.082901,0.995892,0
22081,-0.26505002,0.762,9.324,0.154,0.184,-0.466,-0.398,0.55,9.783,-0.04895,-0.055,-0.094325,0.026284,0.022483,0.081066,0.996108,0
22121,-0.20205002,0.96105003,9.283051,0.168,0.395,-0.507,-0.386,0.557,9.783,-0.01155,0.0089375,-0.0207625,0.026753,0.021953,0.080082,0.996187,0
22162,-0.19500001,1.251,9.10095,0.175,0.628,-0.682,-0.366,0.61,9.78,0.012925,-0.0177375,4.13E-04,0.029576,0.021114,0.080038,0.996129,0
22201,-0.13095,1.368,9.04605,0.223,0.703,-0.734,-0.345,0.658,9.778,-0.0243375,-0.0262625,0.006875,0.032092,0.020292,0.080239,0.996052,0
22241,-0.30795002,1.284,9.666,0.031,0.604,-0.12,-0.33,0.676,9.777,-0.104225,0.03025,-0.0166375,0.032924,0.019616,0.0801,0.996049,0
22281,-0.23595001,1.12605,10.518001,0.097,0.43,0.723,-0.341,0.671,9.777,-0.0638,-0.0198,0.0526625,0.032704,0.020112,0.080555,0.99601,0
22321,-0.31500003,0.94395006,11.01105,0.004,0.257,1.227,-0.317,0.682,9.777,0.027775,0.037675,0.0803,0.033416,0.019023,0.081884,0.995899,0
22362,-0.59505004,1.0020001,10.828951,-0.274,0.288,1.04,-0.352,0.72,9.773,0.0598125,-0.00275,0.16665,0.035179,0.020979,0.084231,0.995604,0
22401,-0.04695,0.67095006,11.313001,0.276,-0.051,1.529,-0.318,0.717,9.775,-0.057475,0.052525,0.124025,0.035046,0.019368,0.087368,0.995371,0
22441,-0.83895004,0.63000005,10.828951,-0.462,-0.066,1.052,-0.367,0.693,9.775,-0.0925375,0.0408375,0.0814,0.033464,0.021881,0.089193,0.995211,0
22481,-0.25305,-0.22800002,12.355051,0.106,-0.785,2.569,-0.352,0.567,9.783,-0.4824875,-0.030524999,0.055825,0.025724,0.020105,0.0906,0.995352,0
22521,-1.0690501,-0.79095006,13.609051,-0.653,-1.122,3.814,-0.409,0.332,9.792,-0.14905,0.238975,0.1390125,0.01481,0.02256,0.092019,0.995391,0
22561,-1.0000501,-0.26595002,10.14,-0.503,-0.63,0.346,-0.49,0.382,9.786,0.5124625,0.0089375,0.327525,0.016974,0.026815,0.096761,0.994801,0
22602,-0.84900004,0.01305,8.038051,-0.399,-0.552,-1.662,-0.441,0.572,9.779,0.365475,-0.1678875,0.2561625,0.026763,0.025399,0.102296,0.994069,0
22641,-1.1050501,-0.01995,8.4210005,-0.69,-0.65,-1.359,-0.413,0.637,9.777,-0.020075,0.038775,0.1975875,0.030075,0.024427,0.106429,0.993565,0
22681,-0.906,-0.28995,9.70905,-0.48,-0.896,-0.08,-0.418,0.609,9.778,-0.047849998,0.019524999,0.159225,0.02856,0.024669,0.109961,0.993219,0
22721,-0.77505004,0.00795,9.14595,-0.307,-0.591,-0.638,-0.455,0.594,9.778,0.15675,0.055825,0.113437496,0.027521,0.026521,0.11253,0.992912,0
22761,-0.86805004,0.16605,8.46195,-0.335,-0.442,-1.357,-0.496,0.606,9.775,0.0064625,0.06435,0.03025,0.027851,0.028748,0.1138,0.992697,0
22802,-1.2750001,0.19500001,9.321,-0.683,-0.364,-0.457,-0.582,0.555,9.773,-0.0510125,0.1665125,0.0686125,0.024695,0.032938,0.11455,0.992563,0
22841,-0.82695,0.55095005,8.46405,-0.179,-0.019,-1.311,-0.643,0.568,9.769,0.111925,-0.0859375,0.143275,0.024956,0.035994,0.116681,0.992203,0
22881,-0.70305,0.753,8.500051,-0.051,0.141,-1.337,-0.63,0.592,9.768,-0.073425,0.0493625,0.106975,0.026179,0.035552,0.119046,0.991906,0
22921,-0.44700003,1.02495,8.93595,0.215,0.434,-0.832,-0.651,0.587,9.767,-0.0446875,0.0451,0.09845,0.025718,0.036645,0.121368,0.991597,0
22961,-0.62100005,1.0639501,8.679001,0.016,0.438,-1.09,-0.629,0.624,9.766,0.0320375,-0.07205,0.023924999,0.027712,0.035716,0.122463,0.991442,0
23002,-0.67395,1.12605,8.854051,-0.053,0.445,-0.966,-0.612,0.656,9.765,-0.064899996,-0.04015,-0.009075,0.030088,0.035381,0.122596,0.991369,0
23041,-0.81795,1.1400001,9.640051,-0.196,0.465,-0.134,-0.62,0.664,9.764,-0.1032625,-0.0166375,-0.062425,0.0298,0.035587,0.12204,0.991439,0
23081,-0.80595005,0.906,10.32705,-0.195,0.251,0.557,-0.608,0.647,9.766,-0.0754875,-0.121,-0.0911625,0.028994,0.034691,0.120439,0.99169,0
23121,-0.66705,0.91995007,10.971001,-0.081,0.28,1.195,-0.586,0.631,9.768,-0.0424875,0.03135,-0.1145375,0.028465,0.033527,0.118538,0.991974,0
23161,-0.84705,0.88905007,11.4210005,-0.233,0.247,1.647,-0.61,0.637,9.766,0.060775,-0.0358875,-0.126225,0.028758,0.03472,0.116041,0.99222,0
23202,-0.708,0.91305006,10.738951,-0.11,0.211,0.968,-0.584,0.7,9.764,0.1780625,-0.122099996,-0.17105,0.032355,0.033602,0.113063,0.992492,0
23241,-0.48000002,0.62295,10.759951,0.076,-0.103,0.995,-0.553,0.714,9.764,-0.07975,-0.0251625,-0.1997875,0.033135,0.03207,0.109338,0.992934,0
23281,-0.66195005,0.27105,10.99695,-0.106,-0.382,1.221,-0.545,0.638,9.77,-0.158675,-0.1274625,-0.23815,0.029474,0.031104,0.104921,0.993557,0
23321,-0.44400004,-0.01305,11.63595,0.043,-0.526,1.851,-0.478,0.526,9.78,-0.259875,-0.1678875,-0.179575,0.024046,0.026837,0.100611,0.994273,0
23362,-0.12105001,0.00105,11.707951,0.344,-0.42,1.912,-0.453,0.42,9.787,-0.006325,0.0856625,-0.1401125,0.018475,0.024679,0.09781,0.994727,0
23401,-0.15900001,0.16800001,9.649051,0.281,-0.281,-0.143,-0.429,0.449,9.786,0.2376,-0.121,-0.1838375,0.020744,0.023977,0.094672,0.995003,0
23441,-0.052050002,-0.07005,9.316051,0.345,-0.536,-0.471,-0.388,0.467,9.787,-9.63E-04,0.0749375,-0.2179375,0.021967,0.021889,0.090643,0.9954,0
23481,-0.040050004,-0.30705002,10.55895,0.38,-0.708,0.766,-0.408,0.408,9.789,0.0246125,0.0473,-0.1551,0.018953,0.022593,0.086916,0.995779,0
23522,0.25605002,-0.20700002,9.481951,0.625,-0.606,-0.297,-0.366,0.419,9.79,0.1865875,-0.0485375,-0.146575,0.019747,0.020405,0.084072,0.996054,0
23561,-0.432,0.19500001,8.78205,-0.052,-0.248,-1.018,-0.369,0.439,9.789,0.179025,0.1485,-0.1188,0.020936,0.020789,0.081279,0.996254,0
23601,0.02205,0.54405004,7.9519506,0.363,0.035,-1.818,-0.375,0.511,9.786,0.1364,-0.1007875,-0.045375,0.024478,0.021178,0.079886,0.996278,0
23641,-0.102000006,0.57105005,8.553,0.241,0.026,-1.246,-0.337,0.531,9.786,-0.0243375,0.071775,-0.113575,0.025702,0.019267,0.078384,0.996405,0
23682,-0.246,0.64995,8.79705,0.101,0.098,-1,-0.346,0.541,9.785,0.0598125,-0.0570625,-0.062425,0.026204,0.019762,0.076502,0.996529,0
23721,-0.022950001,0.73605,8.719951,0.298,0.161,-1.067,-0.304,0.581,9.784,0.0268125,-0.00385,-0.0539,0.02845,0.017704,0.075557,0.996578,0
23761,-0.231,1.03695,9.06705,0.059,0.417,-0.711,-0.304,0.619,9.782,0.0565125,-0.0209,-0.0474375,0.030344,0.017862,0.074573,0.996593,0
23801,-0.28395,1.04505,9.201,0.001,0.37,-0.586,-0.273,0.664,9.78,-0.0020625,-0.064625,-0.027224999,0.032763,0.016425,0.073743,0.996603,0
23841,-0.54705,1.28205,9.53205,-0.24,0.584,-0.256,-0.303,0.695,9.777,0.08745,0.070675,0.089925,0.034254,0.018101,0.07428,0.996484,0
23882,-0.48495004,1.50405,9.276,-0.181,0.722,-0.496,-0.294,0.775,9.771,0.0246125,-0.0922625,0.13145,0.039413,0.018339,0.076623,0.996111,0
23921,-0.44700003,1.452,9.89805,-0.155,0.616,0.12,-0.28,0.827,9.767,-0.0669625,-0.0325875,0.18259999,0.040959,0.017622,0.079449,0.995841,0
23961,-0.35595003,0.906,11.28705,-0.077,0.093,1.508,-0.278,0.803,9.769,-0.08195,0.124025,0.1794375,0.039691,0.017566,0.083219,0.995585,0
24001,-0.58305,0.97305006,10.92,-0.275,0.131,1.143,-0.296,0.835,9.766,0.2759625,-0.0891,0.3147375,0.041434,0.018768,0.088142,0.995068,0
24041,-0.432,0.44805002,11.44005,-0.156,-0.499,1.669,-0.265,0.934,9.758,0.247225,-0.046475,0.36905,0.046245,0.017985,0.093723,0.994361,0
24082,0.112950005,1.2859501,10.36695,0.332,0.231,0.658,-0.277,1.035,9.747,0.28985,0.12925,0.43725,0.051409,0.019574,0.102482,0.993212,0
24121,0.89100003,0.75495005,10.248,1.103,-0.282,0.551,-0.187,1.07,9.746,-0.056375,-0.0677875,0.1357125,0.053301,0.015451,0.108274,0.99257,0
24161,-1.0330501,0.43395,11.86095,-0.77,-0.536,2.093,-0.258,0.952,9.756,-0.31625,0.356125,0.0845625,0.046547,0.018721,0.109619,0.992706,0
24202,-0.27195,0.66405004,10.738951,0.081,-0.239,0.973,-0.352,0.896,9.759,0.1951125,-0.063525,0.4052125,0.043411,0.023122,0.114947,0.992153,0
24241,-0.025050001,0.56805,10.1640005,0.261,-0.365,0.401,-0.268,0.911,9.76,-0.0617375,-0.0444125,0.126225,0.044541,0.019214,0.120325,0.991548,0
24281,-0.633,0.19695,9.69495,-0.335,-0.668,-0.08,-0.293,0.859,9.764,0.0086625,0.1271875,0.0495,0.041699,0.020188,0.121494,0.99151,0
24321,-0.48000002,0.07305,9.958051,-0.134,-0.731,0.188,-0.341,0.797,9.768,-0.07975,-0.03795,-0.0187,0.038277,0.022252,0.122143,0.991524,0
24362,-1.1389501,0.015000001,8.86095,-0.776,-0.748,-0.864,-0.326,0.749,9.772,0.0757625,0.0121,-0.0837375,0.035981,0.021155,0.120223,0.991869,0
24401,-0.92805004,0.26700002,8.983951,-0.467,-0.489,-0.738,-0.444,0.734,9.768,0.0246125,0.190025,0.111237496,0.034481,0.027083,0.120962,0.991688,0
24441,-0.41595003,0.34305,8.799001,0.025,-0.37,-0.929,-0.457,0.725,9.769,0.12265,-0.1881,0.0292875,0.03403,0.027555,0.122388,0.991515,0
24482,-0.68595004,0.41700003,9.4459505,-0.226,-0.32,-0.33,-0.455,0.728,9.768,-0.0105875,0.1122,-0.0218625,0.034059,0.027705,0.121955,0.991564,0
24521,-0.98805004,0.42495003,9.027,-0.459,-0.316,-0.748,-0.521,0.738,9.764,0.19607499,-0.022,-0.010175,0.034187,0.03098,0.121302,0.991542,0
24561,-0.66495,0.63495004,8.81595,-0.141,-0.137,-0.951,-0.512,0.763,9.763,-0.0680625,0.06435,-0.0804375,0.035539,0.030677,0.120409,0.991613,0
24601,-1.1340001,0.73095006,9.352051,-0.53,-0.006,-0.376,-0.618,0.729,9.759,0.0044,0.141075,-0.0166375,0.033174,0.035782,0.119414,0.991644,0
24641,-0.71505004,0.82905006,9.07905,-0.058,0.046,-0.683,-0.65,0.77,9.754,0.1364,-0.028324999,0.0473,0.035218,0.037651,0.119803,0.991458,0
24681,-0.37695003,1.0540501,8.512051,0.253,0.203,-1.251,-0.621,0.845,9.75,0.1406625,-0.0944625,-0.034649998,0.039176,0.036612,0.119938,0.991332,0
24721,-0.79905003,0.846,9.561001,-0.168,-0.031,-0.199,-0.622,0.875,9.747,0.011825,0.0803,-0.0826375,0.040641,0.036878,0.118227,0.991468,0
24761,-0.67200005,1.1040001,9.40995,-0.001,0.186,-0.342,-0.665,0.917,9.74,0.2079,-0.0251625,-0.0752125,0.043071,0.039287,0.116958,0.991424,0
24802,0.46395,1.0639501,8.811001,1.067,0.093,-0.941,-0.604,0.968,9.739,-0.1703625,0.0930875,-0.30745,0.045644,0.036292,0.113865,0.991783,0
24841,-1.2270001,0.53505003,10.267051,-0.589,-0.367,0.511,-0.638,0.896,9.744,-0.1192125,0.0334125,-0.518375,0.042123,0.037175,0.103875,0.993002,0
24881,-0.94905007,0.84105,10.410001,-0.145,0.026,0.664,-0.8,0.8,9.741,-0.2011625,0.3029125,-0.110275,0.036646,0.044706,0.098629,0.993443,0
