time(ms),acc.x,acc.y,acc.z,acclinear.x,acclinear.y,acclinear.z,gravity.x,gravity.y,gravity.z,gyroscope.x,gyroscope.y,gyroscope.z,RV.x,RV.y,RV.z,RV.cos,RV.heading
1,0.13605,1.164,10.578,-0.022,0.005,0.831,0.159,1.152,9.737,-0.0435875,0.06435,0.0122375,0.040879,-0.043125,-0.623782,0.779336,0
40,0.25605002,1.2220501,9.41205,0.025,0.017,-0.319,0.219,1.194,9.731,0.02035,-0.0358875,-0.0133375,0.040616,-0.046896,-0.624078,0.778895,0
81,-0.26205,1.143,10.236,-0.446,-0.039,0.494,0.187,1.169,9.734,-0.121275,0.1249875,0.0174625,0.040627,-0.044845,-0.62435,0.778796,0
120,0.48600003,1.0710001,10.14,0.326,-0.086,0.302,0.163,1.162,9.736,0.1662375,-0.0911625,0.0782375,0.041136,-0.043615,-0.623595,0.779444,0
160,0.069000006,1.248,9.774,-0.138,0.033,0.035,0.206,1.206,9.729,0.0182875,-0.014575,-5.50E-04,0.04156,-0.046724,-0.6235,0.779317,0
200,0.21795002,1.2910501,9.60105,0.027,0.058,-0.139,0.19,1.221,9.728,0.104499996,-0.0422125,0.0378125,0.042664,-0.046561,-0.623111,0.779579,0
240,0.26595002,1.1520001,10.015051,0.045,-0.106,0.286,0.213,1.25,9.724,0.069299996,0.0589875,0.0196625,0.043206,-0.048408,-0.622847,0.779647,0
280,0.07395,1.2430501,9.34305,-0.127,-0.052,-0.389,0.195,1.291,9.719,0.17379999,-0.112475,0.0867625,0.045423,-0.049192,-0.622182,0.780003,0
320,0.39000002,1.251,9.934051,0.151,-0.086,0.215,0.229,1.326,9.713,-0.0413875,0.088825,0.0452375,0.045754,-0.051362,-0.620916,0.780852,0
360,0.261,1.41795,9.498,0.023,0.091,-0.22,0.235,1.324,9.713,0.02145,-0.1359875,-0.028324999,0.045457,-0.051657,-0.620609,0.781094,0
400,-0.25500003,1.389,9.642,-0.487,0.067,-0.084,0.24,1.321,9.714,-0.0521125,0.09735,0.0526625,0.045196,-0.051649,-0.62086,0.780911,0
440,0.52905005,1.21695,10.02705,0.299,-0.084,0.306,0.217,1.296,9.718,-0.01375,0.004675,0.1197625,0.045056,-0.049799,-0.618666,0.782778,0
480,0.16005,1.389,9.88605,-0.086,0.086,0.157,0.236,1.303,9.716,0.0683375,-0.00495,0.0122375,0.044821,-0.050714,-0.617457,0.783686,0
520,-0.052050002,1.50705,9.699,-0.251,0.12,-0.028,0.237,1.336,9.712,0.0374,-0.0688875,0.059125,0.046191,-0.051825,-0.616878,0.78399,0
561,0.51000005,1.3219501,10.20495,0.282,-0.033,0.506,0.272,1.352,9.709,0.08855,-0.1934625,0.109175,0.045772,-0.053813,-0.615258,0.785153,0
600,0.37095,1.5690001,9.349951,0.01,0.162,-0.355,0.359,1.406,9.698,0.131175,-0.079475,0.0111375,0.04531,-0.058769,-0.614457,0.785452,0
640,0.45495003,1.416,9.96,0.063,-0.018,0.222,0.385,1.435,9.693,0.0416625,-0.1252625,0.0506,0.045681,-0.060731,-0.613935,0.785689,0
680,0.40695003,1.4830501,9.316051,-0.007,0.02,-0.374,0.402,1.45,9.69,-0.0265375,0.0185625,0.0292875,0.045827,-0.061974,-0.61348,0.785939,0
721,0.165,1.36995,10.21395,-0.239,-0.055,0.504,0.365,1.417,9.696,-0.040425,0.18259999,0.0185625,0.045752,-0.059159,-0.613055,0.786492,0
760,0.43095002,1.45605,9.438001,0.074,0.027,-0.311,0.347,1.43,9.695,0.0715,-0.07315,0.0367125,0.046815,-0.05892,-0.612329,0.787012,0
800,0.19905001,1.3920001,10.02705,-0.141,-0.062,0.357,0.345,1.438,9.694,0.02035,0.0792,0.0484,0.047202,-0.059119,-0.612275,0.787017,0
840,0.55095005,1.5259501,9.22095,0.18,0.061,-0.468,0.363,1.464,9.689,0.0735625,-0.1093125,0.025024999,0.047742,-0.060614,-0.611328,0.787606,0
881,0.45000002,1.4130001,10.144951,0.08,-0.05,0.442,0.368,1.453,9.691,-0.087175,0.0749375,0.0356125,0.0472,-0.060424,-0.610733,0.788115,0
920,0.606,1.5259501,9.72795,0.2,0.088,-0.034,0.371,1.45,9.691,0.0735625,-0.0017875,-0.0528,0.047005,-0.060414,-0.610439,0.788355,0
960,-0.03705,1.488,9.939,-0.379,0.017,0.239,0.351,1.467,9.689,-0.037125,0.004675,0.0089375,0.04823,-0.060192,-0.611158,0.78774,0
1000,0.82800007,1.437,9.634951,0.449,-0.037,-0.059,0.367,1.468,9.689,0.077825,-0.0240625,0.0154,0.047892,-0.060885,-0.610497,0.78822,0
1041,0.28995,1.4970001,9.628051,-0.096,0,-0.07,0.382,1.485,9.685,0.0064625,0.0462,-0.0292875,0.048068,-0.061965,-0.611059,0.78769,0
1080,0.57495004,1.4640001,9.670951,0.226,-0.016,-0.069,0.372,1.487,9.685,0.0268125,-0.00385,-0.0218625,0.048438,-0.061735,-0.611246,0.787541,0
1120,0.079050004,1.54005,9.726001,-0.291,0.05,0.038,0.36,1.488,9.686,-0.0595375,0.0589875,-0.0730125,0.048782,-0.061276,-0.612105,0.786887,0
1160,0.31605002,1.4299501,9.823951,-0.034,-0.043,0.131,0.347,1.473,9.689,0.0033,-0.1115125,0.0111375,0.048492,-0.060413,-0.612532,0.78664,0
1200,0.26595002,1.4899501,9.82905,-0.092,0.018,0.13,0.351,1.466,9.69,0.0022,0.1527625,-0.0155375,0.048346,-0.06001,-0.612413,0.786772,0
1241,0.132,1.473,9.759001,-0.196,-0.006,0.062,0.318,1.477,9.689,0.0565125,-0.098725,0.042075,0.049616,-0.059388,-0.612264,0.786856,0
1280,0.26295,1.5310501,9.237,-0.075,0.034,-0.452,0.332,1.49,9.687,-0.04675,0.09845,0.021724999,0.049757,-0.060173,-0.611651,0.787264,0
1320,0.39000002,1.44,10.059,0.087,-0.028,0.358,0.294,1.458,9.693,-0.0840125,0.039875,0.039875,0.049628,-0.05753,-0.611419,0.78765,0
1360,0.08895,1.488,9.703951,-0.191,0.038,-0.052,0.286,1.445,9.695,0.0427625,0.0089375,0.0207625,0.049421,-0.056896,-0.611237,0.787851,0
1400,0.62295,1.5160501,9.616051,0.319,0.061,-0.078,0.293,1.449,9.694,-0.056375,0.036575,0.0270875,0.049378,-0.057265,-0.610647,0.788284,0
1440,0.028950002,1.4440501,9.771001,-0.246,0.012,0.067,0.273,1.43,9.697,-0.0180125,0.036575,-0.0155375,0.049256,-0.055859,-0.610992,0.788125,0
1481,0.44295,1.5259501,9.474,0.178,0.096,-0.232,0.257,1.428,9.698,-0.040425,0.0430375,0.0719125,0.049723,-0.055118,-0.610335,0.788657,0
1520,0.45705003,1.485,9.72795,0.197,0.079,0.022,0.251,1.402,9.702,-0.1266375,0.039875,-0.010175,0.048862,-0.054014,-0.610064,0.788997,0
1561,0.21795002,1.3609501,10.330951,-0.016,-0.008,0.614,0.23,1.352,9.71,-0.071225,0.1101375,-0.0400125,0.047459,-0.05164,-0.610668,0.788774,0
1600,0.024,1.401,9.60105,-0.146,0.032,-0.162,0.2,1.356,9.71,0.0394625,-0.014575,0.021724999,0.048559,-0.050572,-0.610827,0.788653,0
1640,0.18705001,1.4130001,9.73095,-0.01,0.045,0.055,0.187,1.357,9.71,-0.04675,0.09845,0.023924999,0.049014,-0.050059,-0.610436,0.788961,0
1680,0.141,1.4130001,9.814051,-0.024,0.053,0.094,0.161,1.349,9.711,0.011825,0.0121,0.0174625,0.049542,-0.048709,-0.610177,0.789212,0
1720,0.12195001,1.4089501,9.73305,-0.032,0.056,0.012,0.155,1.346,9.712,-0.0669625,0.055825,0.0015125,0.049675,-0.048252,-0.610192,0.78922,0
1761,0.41700003,1.28205,10.279051,0.26,-0.052,0.555,0.147,1.332,9.714,0.1076625,-0.0209,-0.010175,0.049264,-0.047624,-0.610019,0.789418,0
1800,0.049950004,1.437,9.14595,-0.11,0.06,-0.581,0.15,1.383,9.707,0.0405625,0.0589875,-0.0229625,0.051224,-0.049361,-0.610148,0.789087,0
1840,0.32295,1.34595,9.939,0.238,-0.035,0.192,0.115,1.369,9.709,-0.0339625,0.0856625,0.007975,0.051809,-0.047459,-0.609787,0.789444,0
1880,0.00495,1.4800501,9.27795,-0.133,0.119,-0.394,0.106,1.365,9.71,-0.0669625,0.0356125,-0.0506,0.051905,-0.046958,-0.609914,0.78937,0
1920,0.00495,1.2889501,9.975,-0.085,-0.055,0.255,0.085,1.335,9.714,-0.0254375,-0.0209,0.0154,0.051368,-0.045187,-0.609975,0.789461,0
1961,0.15105,1.3369501,9.73305,0.037,0.003,0.009,0.112,1.331,9.715,-0.039325,-0.0763125,0.004675,0.050253,-0.04618,-0.609805,0.789607,0
2000,0.036000002,1.3099501,10.05105,-0.102,-0.014,0.335,0.131,1.323,9.716,0.0661375,-0.080575,0.0100375,0.049407,-0.046646,-0.609814,0.789625,0
2040,0.093,1.401,9.525001,-0.078,0.043,-0.191,0.16,1.346,9.712,0.0257125,-0.0092125,-0.0070125,0.049473,-0.048544,-0.60959,0.78968,0
2080,0.07395,1.4490001,9.07695,-0.08,0.097,-0.641,0.148,1.346,9.712,-0.099,0.005775,-5.50E-04,0.049995,-0.048088,-0.609493,0.78975,0
2120,-0.066,1.21695,10.059,-0.187,-0.077,0.331,0.132,1.287,9.72,-0.1309,0.061049998,-0.0155375,0.047953,-0.045554,-0.609789,0.789798,0
2161,-0.08295,1.26495,9.70695,-0.152,-0.033,-0.013,0.121,1.26,9.724,-0.04675,-0.1860375,0.0548625,0.047013,-0.044423,-0.610035,0.789729,0
2200,0.17505,1.15005,10.1970005,-0.022,-0.089,0.461,0.185,1.233,9.726,-0.0499125,-0.06985,0.0836,0.044097,-0.046031,-0.609823,0.789969,0
2240,0.38505003,1.3270501,9.73095,0.168,0.112,0.01,0.198,1.222,9.728,-0.020075,0.0143,0.0719125,0.043305,-0.046137,-0.608563,0.790977,0
2280,0.28500003,1.31805,10.20705,0.064,0.091,0.432,0.207,1.216,9.728,0.0044,0.0078375,0.0526625,0.042844,-0.046244,-0.60752,0.791798,0
2320,0.40695003,1.4320501,9.462001,0.175,0.176,-0.272,0.219,1.24,9.725,0.0149875,0.0259875,0.0143,0.043498,-0.047413,-0.606714,0.792311,0
2361,0.22695,1.3579501,10.023001,0.005,0.125,0.27,0.198,1.236,9.726,-0.0499125,0.06215,0.0015125,0.043975,-0.04636,-0.606521,0.792495,0
2400,0.34995002,1.2889501,9.769051,0.153,0.026,0,0.2,1.24,9.725,0.064075,-0.00605,-0.0389125,0.044077,-0.046657,-0.606602,0.79241,0
2440,-0.042000003,1.2739501,9.54405,-0.227,-0.019,-0.189,0.186,1.258,9.723,0.0075625,0.0078375,-0.025024999,0.045248,-0.046684,-0.607142,0.791928,0
2480,0.117000006,1.164,9.87705,-0.084,-0.092,0.163,0.179,1.25,9.724,-0.0169125,0.005775,0.0037125,0.045111,-0.046132,-0.606997,0.79208,0
2520,-0.00105,1.164,9.87705,-0.172,-0.09,0.149,0.172,1.247,9.725,0.061875,-0.10395,0.0600875,0.045267,-0.045745,-0.606532,0.792449,0
2561,0.58695,1.26495,9.646951,0.332,-0.019,-0.077,0.253,1.272,9.72,0.0715,-0.10725,-0.010175,0.043804,-0.04976,-0.605636,0.792974,0
2600,0.177,1.4470501,9.517051,-0.092,0.138,-0.169,0.283,1.291,9.717,-0.020075,-0.064625,-0.0176,0.043794,-0.051654,-0.606013,0.792566,0
2640,0.25905,1.28205,10.000951,-0.005,0.016,0.264,0.277,1.277,9.719,-0.037125,0.052525,0.0100375,0.043249,-0.050933,-0.606055,0.79261,0
2680,0.42600003,1.34595,9.75405,0.154,0.068,0.031,0.267,1.266,9.72,-0.04895,0.0749375,-0.028324999,0.043097,-0.050178,-0.60599,0.792717,0
2720,0.00495,1.2790501,10.165951,-0.224,0.019,0.436,0.224,1.246,9.724,-0.023375,0.0930875,-0.0463375,0.043652,-0.047744,-0.606756,0.79225,0
2761,0.29700002,1.30305,9.450001,0.085,0.032,-0.284,0.2,1.26,9.723,0.0661375,0.0185625,-0.0133375,0.044947,-0.047367,-0.607191,0.791867,0
2800,-0.06795,1.2859501,9.913051,-0.234,0.014,0.178,0.166,1.265,9.723,-0.039325,0.0834625,-0.0207625,0.046127,-0.046119,-0.607762,0.791435,0
2840,0.01695,1.2390001,9.573001,-0.138,-0.043,-0.161,0.151,1.269,9.722,0.0427625,-0.030524999,-0.0048125,0.046749,-0.045705,-0.607661,0.7915,0
2880,0.15105,1.32,10.011001,-0.024,0.037,0.288,0.174,1.27,9.722,0.0235125,-0.17215,0.0196625,0.04608,-0.046568,-0.607204,0.79184,0
2920,0.261,1.251,9.25905,0.002,-0.042,-0.51,0.242,1.295,9.717,0.062975,-0.0518375,-0.0081125,0.044994,-0.050134,-0.607354,0.791569,0
2961,0.273,1.24605,10.128,0.021,-0.06,0.48,0.212,1.278,9.72,-0.11495,0.1590875,-0.00385,0.045074,-0.048096,-0.607558,0.791534,0
3000,0.156,1.19505,9.76395,-0.031,-0.077,0.028,0.18,1.262,9.723,0.1013375,-0.0070125,-5.50E-04,0.045604,-0.046695,-0.607908,0.791319,0
3040,0.37605003,1.3099501,9.349951,0.165,0.018,-0.375,0.201,1.288,9.719,-0.0254375,0.039875,-0.0176,0.045955,-0.048284,-0.607844,0.791253,0
3080,0.22305001,1.2550501,9.805051,0.075,-0.039,0.056,0.169,1.265,9.723,-0.0521125,0.0567875,-0.009075,0.046009,-0.046257,-0.607974,0.791271,0
3120,0.192,1.251,9.88395,-0.004,-0.01,0.176,0.168,1.249,9.725,-0.037125,-0.0155375,-0.0389125,0.045399,-0.045724,-0.608167,0.791189,0
3160,0.08895,1.263,9.88395,-0.091,0.011,0.093,0.159,1.241,9.726,0.014025,0.0248875,-0.0198,0.045339,-0.04512,-0.60832,0.791109,0
3200,0.22305001,1.2409501,9.87405,0.072,-0.017,0.134,0.158,1.242,9.726,0.0012375,0.003575,-0.00165,0.045394,-0.04514,-0.608313,0.79111,0
3240,0.20805001,1.4130001,9.5130005,0.011,0.15,-0.245,0.165,1.252,9.724,-9.63E-04,-0.028324999,-0.0070125,0.045557,-0.045705,-0.608343,0.791045,0
3280,0.30195,1.43505,9.92895,0.134,0.19,0.19,0.165,1.252,9.724,-9.63E-04,0.055825,0.0174625,0.045609,-0.045696,-0.608152,0.79119,0
3320,0.50805,1.6380001,9.108001,0.313,0.334,-0.58,0.19,1.286,9.72,-0.054175,-0.039049998,-0.027224999,0.046196,-0.047786,-0.607937,0.791198,0
3360,0.14595,1.4250001,10.40295,-0.031,0.171,0.666,0.167,1.245,9.725,-0.121275,0.141075,-0.0166375,0.045198,-0.045599,-0.608611,0.790866,0
3401,0.591,1.5979501,9.29205,0.418,0.331,-0.434,0.167,1.261,9.723,0.069299996,-0.07095,-0.010175,0.045883,-0.04619,-0.608464,0.790905,0
3440,0.44295,1.54305,9.43095,0.231,0.252,-0.214,0.19,1.273,9.721,-0.190575,0.1144,-0.036849998,0.045607,-0.047402,-0.608674,0.790688,0
3480,0.39495003,1.3969501,10.068001,0.227,0.183,0.308,0.153,1.219,9.729,-0.073425,0.0845625,0.0132,0.044589,-0.044188,-0.60835,0.791182,0
3520,0.37095,1.6980001,8.754001,0.201,0.433,-0.98,0.166,1.255,9.724,-0.01155,-0.022,0.0495,0.04571,-0.045819,-0.607204,0.791905,0
3561,-0.01305,1.5880501,9.453,-0.183,0.335,-0.273,0.17,1.244,9.725,-0.1618375,0.071775,0.073975,0.045113,-0.045392,-0.606335,0.792629,0
3600,-0.33195,1.593,9.92205,-0.468,0.375,0.185,0.128,1.218,9.729,-0.038225,0.0419375,0.09845,0.045512,-0.042871,-0.604745,0.79396,0
3640,-0.76005006,1.74405,9.493951,-0.848,0.506,-0.234,0.099,1.236,9.727,-0.0979,-0.07095,0.1016125,0.047131,-0.042267,-0.603245,0.795038,0
3680,-0.31305,1.5690001,10.53495,-0.355,0.378,0.794,0.055,1.188,9.734,-0.2673,0.106975,0.126225,0.046604,-0.038634,-0.601774,0.796368,0
3720,-0.28605002,2.02605,10.21395,-0.303,0.926,0.381,0.004,1.157,9.738,-0.0297,0.052525,0.0952875,0.047114,-0.035718,-0.600276,0.797604,0
3761,-0.078,2.4810002,9.189,-0.055,1.261,-0.55,-0.012,1.215,9.731,-0.1362625,0.0419375,0.040975,0.050046,-0.036745,-0.599252,0.798148,0
3800,-0.066,2.29005,10.53705,-0.005,1.082,0.796,-0.048,1.206,9.732,-0.1703625,0.0845625,4.13E-04,0.050697,-0.034814,-0.598855,0.798492,0
3840,0.081,2.493,9.340051,0.128,1.229,-0.394,-0.047,1.262,9.724,0.12375,-0.0433125,-0.0900625,0.054502,-0.038061,-0.598752,0.79817,0
3880,-0.37695003,2.4480002,8.895,-0.329,1.04,-0.783,-0.052,1.411,9.704,0.0075625,-0.0198,-0.1093125,0.059249,-0.041259,-0.599804,0.796882,0
3920,-0.432,2.21295,9.345,-0.341,0.74,-0.354,-0.08,1.452,9.698,-0.0510125,0.0015125,-0.113575,0.061731,-0.041442,-0.600936,0.79583,0
3961,-0.62595004,2.11995,10.035001,-0.542,0.628,0.33,-0.081,1.482,9.693,0.02145,-0.154,-0.18493749,0.062909,-0.04251,-0.602871,0.794217,0
4000,-0.51405,2.04795,10.116,-0.43,0.499,0.46,-0.073,1.529,9.686,0.05555,-0.10615,-0.179575,0.064467,-0.044505,-0.604866,0.792464,0
4040,-0.59805006,1.7839501,11.055,-0.488,0.211,1.407,-0.083,1.572,9.679,0.1332375,-0.1263625,-0.2316875,0.066403,-0.045601,-0.607278,0.790394,0
4080,-0.28605002,1.6290001,10.65495,-0.192,-0.045,0.903,-0.052,1.652,9.666,0.32505,-0.249975,-0.2179375,0.068489,-0.049653,-0.610079,0.787811,0
4120,0.21300001,1.167,11.160001,0.14,-0.531,1.495,0.063,1.688,9.659,-0.1010625,-0.3586,-0.313775,0.066079,-0.055801,-0.613575,0.784885,0
4160,0.26595002,0.24705002,12.682951,0.134,-1.287,2.995,0.123,1.532,9.685,-0.2448875,0.005775,-0.3243625,0.057563,-0.053562,-0.618093,0.782162,0
4201,-0.44400004,0.40800002,10.71195,-0.496,-1.029,1.003,0.06,1.424,9.702,0.2792625,-0.0017875,-0.1529,0.055129,-0.047832,-0.621924,0.779668,0
4240,-0.034950003,0.64995,8.61495,-0.046,-0.89,-1.171,0.074,1.544,9.683,0.4794625,-0.0837375,0.0111375,0.059332,-0.052284,-0.622493,0.778619,0
4280,0.795,1.04205,7.12305,0.747,-0.683,-2.531,0.042,1.718,9.654,0.4049375,0.2432375,0.0154,0.067899,-0.056555,-0.620657,0.779086,0
4320,0.74895006,1.00605,7.5709505,0.801,-0.808,-2.08,-0.052,1.802,9.639,0.0097625,0.111237496,-0.2349875,0.073804,-0.055501,-0.621468,0.777977,0
4361,0.39705002,0.156,9.361951,0.471,-1.555,-0.299,-0.076,1.705,9.656,-0.2673,0.0792,-0.3361875,0.068092,-0.050733,-0.626794,0.774544,0
4400,0.32295,0.109050006,10.273951,0.373,-1.334,0.653,-0.074,1.457,9.697,-0.3290375,-0.00275,-0.2083125,0.05983,-0.044033,-0.631571,0.77175,0
4440,0.28995,0.45795003,11.59605,0.373,-0.903,1.878,-0.087,1.352,9.712,-0.072325,0.0451,0.0600875,0.056242,-0.040357,-0.63328,0.77082,0
4480,0.73005,1.3990501,9.096001,0.806,0.025,-0.768,-0.059,1.412,9.704,0.3430625,-0.0826375,0.158125,0.057997,-0.043647,-0.631433,0.772025,0
4521,0.83805007,1.8400501,8.217,0.789,0.314,-1.474,0.041,1.524,9.687,0.02145,-0.06985,0.06655,0.05909,-0.050941,-0.62932,0.77322,0
4560,0.89295006,1.69095,9.526951,0.762,0.164,-0.166,0.124,1.523,9.686,-0.0979,0.0237875,-0.0207625,0.056456,-0.054052,-0.628685,0.773721,0
4600,0.43605003,1.65795,9.5460005,0.223,0.151,-0.167,0.158,1.51,9.688,-0.0413875,-0.0336875,-0.1326875,0.054746,-0.055085,-0.630083,0.772634,0
4640,0.112950005,1.9710001,9.08895,-0.014,0.474,-0.614,0.139,1.527,9.685,0.010725,0.0856625,-0.025024999,0.056025,-0.054936,-0.631364,0.771506,0
4680,0.44805002,2.0310001,9.646951,0.31,0.47,-0.012,0.125,1.544,9.683,-0.0968,0.06435,-0.0133375,0.057101,-0.054996,-0.631278,0.771493,0
4721,0.13395001,2.091,10.23795,0.018,0.532,0.548,0.103,1.565,9.68,0.0479875,0.0760375,0.03355,0.058637,-0.054785,-0.6308,0.771784,0
4760,0.17505,2.1720002,9.73305,0.099,0.536,0.057,0.091,1.642,9.667,0.16733749,0.0441375,0.141075,0.062255,-0.056687,-0.628876,0.772933,0
4800,0.076950006,2.2350001,10.056001,-0.03,0.504,0.399,0.085,1.728,9.652,0.164175,0.086625,0.1783375,0.066116,-0.058985,-0.625798,0.774936,0
4840,0.34695002,2.2729502,10.41495,0.266,0.448,0.809,0.074,1.812,9.637,0.1406625,0.103675,0.2743125,0.07014,-0.060894,-0.621514,0.777876,0
4881,-0.03705,2.4019501,10.37205,-0.076,0.507,0.742,0.049,1.889,9.622,0.23333749,0.1527625,0.3136375,0.074429,-0.06194,-0.616495,0.781381,0
4920,0.34500003,2.0770502,10.012951,0.267,0.049,0.433,0.086,1.979,9.604,0.0928125,-0.13805,0.277475,0.077326,-0.06584,-0.611187,0.784943,0
4960,-0.066,0.98505,10.762051,-0.201,-0.968,1.223,0.133,1.908,9.618,-0.2715625,0.0143,0.1485,0.073181,-0.065176,-0.608275,0.787652,0
5000,-0.01305,-0.028950002,12.27795,-0.098,-1.741,2.616,0.084,1.714,9.655,-0.107525,0.2497,0.2497,0.067063,-0.056772,-0.605456,0.791012,0
5040,-0.102000006,0.432,9.472051,-0.158,-1.287,-0.19,0.063,1.71,9.656,0.500775,-0.1263625,0.2806375,0.067851,-0.055382,-0.600848,0.794549,0
5080,0.20595,0.975,8.071051,0.093,-0.856,-1.571,0.111,1.823,9.634,0.22165,0.037675,0.2849,0.071421,-0.060438,-0.595663,0.797766,0
5121,0.028950002,0.92505,8.91195,-0.078,-0.918,-0.725,0.106,1.831,9.633,-0.0191125,-0.029424999,0.0430375,0.07212,-0.060179,-0.592251,0.800259,0
5160,-0.58995,0.67395,9.522,-0.692,-1.073,-0.141,0.093,1.754,9.648,-0.021175,0.002475,-0.06875,0.069334,-0.057239,-0.592525,0.800518,0
5200,-0.6,0.95100003,9.26595,-0.623,-0.748,-0.398,0.023,1.688,9.66,-0.0510125,0.0653125,0.0259875,0.068745,-0.05231,-0.592576,0.800868,0
5240,-0.13800001,1.164,9.747001,-0.119,-0.462,0.066,-0.016,1.62,9.671,-0.1010625,0.070675,0.0111375,0.067198,-0.048583,-0.592156,0.801545,0
5280,-0.34395,1.2720001,9.489,-0.276,-0.301,-0.2,-0.063,1.568,9.68,0.0394625,0.0675125,0.021724999,0.066526,-0.04503,-0.592294,0.801706,0
5320,-0.23595001,1.5139501,8.77995,-0.098,-0.066,-0.918,-0.092,1.59,9.676,0.0576125,-0.0103125,0.0430375,0.068335,-0.044529,-0.591542,0.802137,0
5361,-0.33705002,1.58595,9.25905,-0.229,-0.002,-0.429,-0.097,1.582,9.677,-0.141625,0.0163625,-0.0240625,0.068044,-0.043886,-0.590891,0.802677,0
5400,-0.42795002,1.521,9.984,-0.292,-0.013,0.297,-0.13,1.523,9.686,-0.088275,0.038775,-0.0548625,0.066697,-0.040848,-0.591201,0.802722,0
5440,-0.39600003,1.6890001,9.450001,-0.238,0.168,-0.247,-0.157,1.521,9.686,-0.003025,-0.0240625,-0.0826375,0.067375,-0.03973,-0.592012,0.802124,0
5480,-0.47805002,1.8709501,9.36705,-0.282,0.345,-0.299,-0.18,1.534,9.684,-0.0265375,4.13E-04,-0.086899996,0.068564,-0.039255,-0.59287,0.801412,0
5521,-0.171,2.08095,9.15795,0.052,0.511,-0.554,-0.188,1.559,9.68,-0.003025,-0.00605,-0.0922625,0.069813,-0.039717,-0.593405,0.800886,0
5560,-0.38895002,2.23005,9.0720005,-0.206,0.63,-0.603,-0.188,1.59,9.675,-0.0680625,-0.0262625,-0.1816375,0.071037,-0.040791,-0.594744,0.79973,0
5600,-0.57105005,2.19405,9.702001,-0.346,0.597,0.024,-0.219,1.609,9.671,-0.087175,-0.0411125,-0.1241625,0.072675,-0.040302,-0.596469,0.798321,0
5640,-0.11400001,2.15805,9.880951,0.076,0.522,0.231,-0.185,1.615,9.67,-0.07865,-0.1285625,-0.1816375,0.071854,-0.041987,-0.597814,0.797303,0
5680,-0.60495,2.14395,10.354951,-0.417,0.53,0.679,-0.181,1.607,9.672,-0.0424875,-0.039049998,-0.1892,0.07126,-0.042134,-0.600372,0.795424,0
5721,-0.32205,2.3380501,10.38405,-0.12,0.686,0.712,-0.192,1.642,9.666,0.0501875,-0.117837496,-0.1219625,0.072942,-0.042903,-0.601626,0.794282,0
5760,0.37395,1.794,10.212001,0.512,0.057,0.593,-0.103,1.671,9.662,-0.11605,-0.3713875,-0.2349875,0.071334,-0.047544,-0.602895,0.793201,0
5800,0.22500001,0.62595004,12.493051,0.218,-0.854,2.706,0.014,1.512,9.689,-0.357775,-0.062425,-0.2563,0.060958,-0.047606,-0.606144,0.791585,0
5840,0.37395,0.58005005,11.707951,0.366,-0.828,1.993,0.001,1.4,9.706,0.1417625,0.0814,-0.1656875,0.056887,-0.043729,-0.608173,0.790554,0
5880,-0.25995,0.82005006,9.225,-0.185,-0.681,-0.392,-0.049,1.479,9.694,0.434775,0.154825,-0.129525,0.061005,-0.044109,-0.609113,0.789502,0
5920,-0.00405,1.00395,8.124001,0.101,-0.624,-1.565,-0.088,1.632,9.669,0.30153748,-0.0528,-0.0985875,0.06909,-0.047699,-0.60914,0.788605,0
5960,0.54795,0.702,8.92395,0.605,-0.99,-0.739,-0.06,1.684,9.66,-0.0094875,-0.0433125,-0.1731125,0.070049,-0.05035,-0.610085,0.787625,0
6000,0.77595,0.56295,10.17105,0.801,-1.024,0.482,-0.038,1.582,9.678,-0.1991,0.1249875,-0.2871,0.065039,-0.047939,-0.612316,0.786472,0
6041,-0.11895001,0.64995,10.62405,-0.011,-0.835,0.929,-0.097,1.475,9.694,0.0512875,0.1527625,-0.245575,0.062452,-0.042659,-0.615353,0.784614,0
6080,0.055050004,1.2270001,8.799001,0.193,-0.275,-0.891,-0.139,1.504,9.689,0.2088625,0.0334125,-0.060225,0.064901,-0.041973,-0.616286,0.78372,0
6120,0.41400003,1.6000501,8.409,0.525,0.041,-1.278,-0.117,1.551,9.682,0.014025,0.004675,-0.0463375,0.065975,-0.045164,-0.615493,0.784075,0
6160,-0.043950003,1.7890501,8.634001,0.049,0.222,-1.059,-0.09,1.561,9.681,-0.1331,-0.0198,-0.0240625,0.065715,-0.045653,-0.615274,0.784241,0
6201,0.12495001,1.7719501,9.358951,0.197,0.253,-0.331,-0.074,1.513,9.688,-0.190575,0.0089375,0.0122375,0.063327,-0.044709,-0.614411,0.785168,0
6240,-0.34605002,1.8010501,9.34305,-0.264,0.314,-0.363,-0.076,1.483,9.693,-0.08195,-0.046475,0.022824999,0.062071,-0.043593,-0.6137,0.785887,0
6280,0.049950004,1.84695,9.40695,0.119,0.379,-0.31,-0.051,1.473,9.695,-0.11275,-0.0528,0.111237496,0.061073,-0.044176,-0.612142,0.787147,0
6320,0.09105001,2.0020502,10.059,0.123,0.531,0.381,-0.042,1.457,9.697,-0.1458875,0.069575,0.1027125,0.060252,-0.04389,-0.610138,0.78878,0
6360,0.27105,2.22495,9.88395,0.299,0.758,0.111,-0.04,1.474,9.695,0.0405625,0.0419375,0.1282875,0.061073,-0.044283,-0.607476,0.790747,0
6401,-0.05595,2.42805,9.465,0.011,0.91,-0.259,-0.054,1.541,9.684,-0.021175,0.1260875,0.122925,0.064364,-0.045572,-0.604337,0.792815,0
6440,0.04095,2.3400002,10.422001,0.143,0.75,0.727,-0.088,1.578,9.678,0.044825,0.0856625,0.2294875,0.067173,-0.045006,-0.60045,0.795564,0
6480,0.23505001,2.32305,10.15005,0.287,0.655,0.484,-0.069,1.673,9.662,0.163075,0.0462,0.27101249,0.07081,-0.048324,-0.595254,0.798951,0
6520,-0.34605002,2.3140502,10.33395,-0.259,0.543,0.676,-0.08,1.758,9.647,0.1364,-0.0251625,0.2795375,0.074938,-0.050065,-0.59058,0.80193,0
6561,0.49095002,1.11195,11.512051,0.466,-0.626,1.856,0.023,1.729,9.652,-0.2992,-0.2030875,0.20185,0.070616,-0.052922,-0.584427,0.806633,0
6600,-0.351,0.29295,12.943951,-0.37,-1.262,3.255,0.029,1.548,9.683,-9.63E-04,0.2017125,0.191125,0.063464,-0.047413,-0.581042,0.810008,0
6640,-0.26205,0.71400005,9.658951,-0.239,-0.868,-0.022,-0.019,1.576,9.679,0.4433,0.069575,0.3147375,0.066408,-0.045757,-0.575573,0.813763,0
6680,-0.432,1.12395,8.101951,-0.384,-0.584,-1.567,-0.037,1.701,9.657,0.248325,0.0408375,0.1975875,0.072724,-0.048326,-0.569385,0.81742,0
6720,-0.768,0.63000005,9.240001,-0.732,-1.102,-0.418,-0.03,1.728,9.653,-0.0691625,-0.00495,0.122925,0.073631,-0.048964,-0.565701,0.819855,0
6761,-0.75600004,0.62595004,9.96,-0.669,-1.019,0.287,-0.079,1.632,9.669,-0.0094875,0.0462,0.190025,0.071253,-0.043789,-0.562331,0.822671,0
6800,0.12900001,1.1020501,9.273001,0.195,-0.527,-0.41,-0.073,1.617,9.672,0.1354375,-0.031625,0.1507,0.070686,-0.043195,-0.557655,0.825928,0
6840,-0.46800002,1.30305,9.196951,-0.362,-0.35,-0.489,-0.099,1.624,9.67,0.045925,0.13145,0.0548625,0.072005,-0.041897,-0.554771,0.827821,0
6880,0.165,1.5499501,8.90205,0.291,-0.101,-0.773,-0.127,1.64,9.667,0.0768625,0.03135,0.075075,0.073581,-0.041054,-0.551818,0.829696,0
6920,-0.31305,1.5520501,9.42195,-0.172,-0.11,-0.254,-0.127,1.649,9.666,-0.0424875,0.0143,-0.0741125,0.073954,-0.04112,-0.550112,0.830792,0
6960,-0.60495,1.50195,9.54405,-0.413,-0.135,-0.175,-0.146,1.634,9.668,0.02035,-0.0688875,-0.042075,0.073839,-0.039917,-0.549622,0.831185,0
7000,-0.38205,1.674,9.59595,-0.229,0.033,-0.08,-0.158,1.628,9.669,-0.0446875,0.038775,0.0026125,0.074003,-0.039128,-0.54878,0.831764,0
7040,-0.45600003,2.01405,9.187051,-0.26,0.371,-0.513,-0.189,1.643,9.666,0.0427625,-0.029424999,-0.0070125,0.075574,-0.038168,-0.547658,0.832407,0
7080,-0.31500003,2.3490002,8.964001,-0.146,0.67,-0.68,-0.179,1.699,9.656,0.0182875,0.011,-0.044275,0.077813,-0.04,-0.546185,0.833082,0
7120,-0.423,2.6869502,8.823,-0.258,0.892,-0.832,-0.203,1.763,9.644,0.0182875,-0.07095,-0.0496375,0.081261,-0.040695,-0.544839,0.833601,0
7161,-0.162,2.5120502,9.646951,0.017,0.709,-0.007,-0.165,1.809,9.636,-0.0532125,-0.095425,-0.13805,0.082219,-0.043576,-0.544613,0.833508,0
7200,-0.28095,2.3470502,10.16895,-0.101,0.486,0.557,-0.156,1.842,9.63,-0.005225,-0.1263625,-0.177375,0.083292,-0.045059,-0.546257,0.832246,0
7240,-0.00405,2.1340501,10.284,0.085,0.264,0.628,-0.102,1.859,9.628,0.0479875,-0.1860375,-0.1912625,0.082279,-0.048369,-0.549485,0.830034,0
7280,0.04605,2.35395,10.293,0.091,0.459,0.659,-0.05,1.883,9.624,0.0012375,-0.165825,-0.146575,0.081607,-0.051485,-0.55235,0.828008,0
7320,0.17505,2.163,10.441951,0.094,0.287,0.838,0.047,1.891,9.622,-9.63E-04,-0.351175,-0.194425,0.07905,-0.056094,-0.555457,0.825875,0
7361,0.66300005,1.8540001,10.777051,0.464,0.001,1.145,0.189,1.851,9.628,-0.225775,-0.30855,-0.27335,0.072949,-0.061351,-0.559742,0.823166,0
7400,0.83295006,1.04205,11.96895,0.483,-0.719,2.306,0.252,1.713,9.652,-0.1436875,0.089925,-0.3925625,0.064903,-0.060428,-0.565295,0.820107,0
7440,-0.71505004,0.906,9.8890505,-0.842,-0.806,0.232,0.134,1.705,9.656,0.37193748,0.1527625,-0.2893,0.067558,-0.055683,-0.571326,0.816039,0
7480,0.16995001,0.99195004,8.136001,0.085,-0.828,-1.506,0.078,1.808,9.638,0.316525,-0.061325,-0.154,0.073356,-0.056683,-0.574176,0.813465,0
7520,0.24705002,0.66195005,9.163051,0.168,-1.154,-0.485,0.076,1.807,9.638,-0.155375,0.1101375,-0.212575,0.071703,-0.055936,-0.577454,0.811341,0
7561,0.12495001,0.73095006,10.11795,0.103,-0.927,0.439,0.018,1.649,9.666,-0.072325,0.1282875,-0.10395,0.068072,-0.049759,-0.580169,0.810119,0
7600,0.25095,1.2720001,8.599951,0.249,-0.362,-1.075,-0.004,1.629,9.67,0.0853875,0.111237496,-0.06875,0.067846,-0.048438,-0.581091,0.809557,0
7640,-0.21195,1.6669501,8.043,-0.142,0.023,-1.632,-0.062,1.638,9.668,-0.14795,0.153725,-0.042075,0.069896,-0.046359,-0.581925,0.808905,0
7680,0.25395,1.7220001,9.369,0.37,0.129,-0.269,-0.097,1.564,9.68,-0.2767875,0.03025,0.0185625,0.067683,-0.042495,-0.582164,0.809133,0
7720,0.44505003,1.8559501,9.823951,0.498,0.36,0.127,-0.063,1.491,9.692,-0.21395,0.0451,0.0037125,0.063669,-0.041832,-0.581974,0.809631,0
7761,0.37095,2.0740502,9.850051,0.426,0.615,0.149,-0.058,1.454,9.698,-0.104225,0.1016125,0.007975,0.062119,-0.040797,-0.581745,0.809968,0
7800,-0.147,2.19405,9.58695,-0.059,0.708,-0.118,-0.077,1.484,9.693,0.0394625,0.0132,0.0089375,0.063977,-0.041073,-0.581603,0.809911,0
7840,0.00195,2.33505,9.1699505,0.075,0.801,-0.515,-0.075,1.554,9.682,0.0394625,0.011,0.0930875,0.066896,-0.043151,-0.580523,0.810342,0
7880,0.025950002,2.28195,9.63,0.106,0.639,0,-0.079,1.621,9.671,-0.047849998,0.0814,0.09955,0.069878,-0.044859,-0.578763,0.811256,0
7920,0.097950004,2.25795,10.240951,0.19,0.597,0.562,-0.095,1.649,9.666,0.0928125,0.06325,0.1507,0.071745,-0.044902,-0.5766,0.81263,0
7960,0.21300001,2.4019501,9.526951,0.282,0.652,-0.129,-0.079,1.747,9.649,0.1695375,0.072875,0.1379125,0.075454,-0.048234,-0.573808,0.814078,0
8001,0.141,2.457,10.05405,0.239,0.62,0.418,-0.103,1.83,9.633,0.1013375,0.113299996,0.2209625,0.079858,-0.049399,-0.570587,0.81585,0
8040,0.060000002,2.66295,10.090051,0.107,0.757,0.447,-0.107,1.912,9.617,0.182325,0.141075,0.177375,0.083652,-0.051285,-0.566822,0.817975,0
8080,-0.28395,2.361,10.482,-0.099,0.306,0.941,-0.132,1.995,9.6,-0.0105875,-0.0752125,0.1496,0.088083,-0.052397,-0.563972,0.819409,0
8121,0.32805002,1.2600001,11.93805,0.38,-0.649,2.311,-0.053,1.902,9.62,-0.3119875,-0.04015,0.0196625,0.081925,-0.052847,-0.562728,0.820872,0
8160,-0.81795,0.59505004,12.1060505,-0.72,-1.193,2.365,-0.123,1.752,9.648,-0.006325,0.256025,0.0548625,0.077734,-0.045276,-0.562778,0.821698,0
8200,-0.744,0.75000006,9.774,-0.542,-1.013,0.12,-0.193,1.763,9.644,0.3953125,0.03025,0.26785,0.080199,-0.042583,-0.559961,0.823527,0
8240,-0.94200003,1.2270001,7.62405,-0.767,-0.671,-2.006,-0.172,1.896,9.619,0.3037375,-0.1689875,0.23265,0.085549,-0.046928,-0.555568,0.825725,0
8281,-0.25800002,0.68100005,8.778001,-0.147,-1.207,-0.851,-0.097,1.888,9.622,-0.14795,-0.0859375,0.16775,0.083076,-0.049579,-0.552397,0.827947,0
8320,-0.97800004,0.66195005,9.807,-0.915,-1.087,0.183,-0.12,1.741,9.65,-0.18315,0.0345125,0.025024999,0.077613,-0.044244,-0.551631,0.829289,0
8360,-0.70500004,1.14495,9.148951,-0.541,-0.518,-0.524,-0.153,1.662,9.663,-0.004125,-0.0763125,0.1155,0.075234,-0.040518,-0.550929,0.830165,0
8400,-0.82995003,1.3609501,9.09105,-0.626,-0.274,-0.584,-0.19,1.622,9.669,-0.1117875,0.1164625,0.13365,0.074972,-0.036533,-0.549169,0.831539,0
8440,-0.246,1.7370001,8.90205,-0.007,0.134,-0.779,-0.238,1.595,9.673,-0.0754875,-0.0273625,0.1518,0.074919,-0.034586,-0.546679,0.833266,0
8481,-0.60195005,1.713,9.055051,-0.377,0.131,-0.633,-0.22,1.568,9.677,-0.171325,-0.029424999,0.06765,0.073483,-0.034486,-0.545235,0.834343,0
8520,-0.588,1.7700001,9.64395,-0.336,0.231,-0.04,-0.248,1.525,9.684,-0.071225,-0.031625,0.1815,0.072259,-0.031864,-0.543412,0.835742,0
8560,0.14595,2.019,8.743951,0.342,0.465,-0.925,-0.207,1.538,9.682,-0.1117875,-0.0826375,0.091025,0.071862,-0.033767,-0.54097,0.837285,0
8600,-0.29805002,1.89495,9.856951,-0.113,0.374,0.16,-0.172,1.518,9.686,-0.12979999,-0.062425,-0.0144375,0.069928,-0.034703,-0.540699,0.837585,0
8640,0.01905,2.223,8.983951,0.156,0.682,-0.708,-0.141,1.536,9.684,-0.055275,-0.0518375,-0.043175,0.069957,-0.03657,-0.540968,0.837329,0
8681,-0.45105,2.30205,10.141951,-0.316,0.762,0.449,-0.132,1.539,9.684,-0.0754875,-0.064625,-0.1007875,0.069838,-0.037126,-0.542328,0.836435,0
8720,-0.064050004,2.53095,9.77595,0.034,0.91,0.076,-0.105,1.594,9.675,0.08635,-0.17105,-0.1188,0.071255,-0.040176,-0.544,0.835088,0
8760,-0.55005,2.3850002,10.330951,-0.503,0.731,0.701,-0.082,1.665,9.663,-0.04675,-0.0507375,-0.2520375,0.073519,-0.043284,-0.547166,0.832664,0
8800,-0.37005,1.8079501,10.755,-0.253,0.153,1.079,-0.113,1.64,9.667,-0.1692625,-0.064625,-0.2904,0.073132,-0.041636,-0.551639,0.829826,0
8840,-0.29295,0.42705002,12.774,-0.164,-1.043,3.066,-0.121,1.465,9.695,-0.4728625,0.0653125,-0.313775,0.065628,-0.036704,-0.557255,0.826929,0
8880,-0.61395,-0.052950002,13.564051,-0.441,-1.383,3.839,-0.171,1.342,9.712,-0.01375,0.054725,-0.0303875,0.061703,-0.031278,-0.560316,0.825384,0
8920,-0.67200005,0.702,9.771001,-0.464,-0.78,-0.111,-0.176,1.516,9.687,0.79048747,-0.011275,0.225225,0.06929,-0.035979,-0.55837,0.825909,0
8960,0.00495,1.404,6.6850505,0.16,-0.369,-3.055,-0.16,1.826,9.633,0.7447,-0.0070125,0.2167,0.082324,-0.045194,-0.553498,0.827538,0
9000,0.441,1.3219501,7.03695,0.582,-0.64,-2.579,-0.146,1.962,9.607,-0.073425,0.036575,-0.0207625,0.087854,-0.049493,-0.551691,0.82793,0
9040,0.61995006,0.504,10.50405,0.84,-1.312,0.867,-0.227,1.816,9.634,-0.511225,0.29865,-0.161425,0.083586,-0.041489,-0.553428,0.827652,0
9081,-0.19500001,0.59205,11.634001,0.151,-1.088,1.975,-0.342,1.674,9.656,-0.124575,0.23375,-0.0166375,0.08094,-0.03293,-0.555165,0.827136,0
9120,-0.38205,1.14795,8.971951,0.019,-0.528,-0.807,-0.4,1.713,9.647,0.2781625,0.09735,0.1942875,0.084334,-0.031703,-0.553417,0.828016,0
9160,-0.09,1.78005,7.8799505,0.337,-0.006,-1.762,-0.418,1.777,9.635,-0.023375,0.1516625,0.2869625,0.087751,-0.032284,-0.548927,0.830624,0
9200,-0.25800002,1.7200501,9.130051,0.196,-0.027,-0.514,-0.441,1.743,9.64,-0.2044625,0.0686125,0.2827,0.086982,-0.029733,-0.544072,0.833987,0
9240,0.14400001,1.7340001,9.462001,0.55,0.038,-0.198,-0.414,1.691,9.65,-0.0638,0.053625,0.276375,0.08424,-0.02902,-0.539298,0.837387,0
9281,-0.13800001,1.8750001,9.003,0.251,0.183,-0.65,-0.387,1.682,9.653,-0.1192125,0.0408375,0.2135375,0.08338,-0.030019,-0.535243,0.840036,0
9320,-0.15195,2.043,9.68295,0.234,0.388,0.012,-0.384,1.654,9.658,-0.1533125,0.1335125,0.277475,0.082061,-0.028375,-0.531177,0.842799,0
9360,-0.022950001,2.3140502,9.964951,0.379,0.654,0.297,-0.393,1.646,9.659,-0.0776875,0.0823625,0.2902625,0.082176,-0.027346,-0.526097,0.846002,0
9400,-0.28395,2.4499502,9.75405,0.096,0.769,0.087,-0.382,1.695,9.651,0.1056,0.052525,0.3243625,0.084209,-0.028715,-0.52092,0.848956,0
9440,-0.11400001,2.6940002,9.673051,0.263,0.899,0.05,-0.359,1.794,9.634,0.144925,0.038775,0.3903625,0.088314,-0.031837,-0.514584,0.852284,0
9481,-0.021000002,2.6920502,9.747001,0.31,0.76,0.127,-0.322,1.927,9.609,0.1258125,0.0484,0.3584625,0.093374,-0.036161,-0.507674,0.85571,0
9520,-0.528,2.232,10.786051,-0.198,0.244,1.173,-0.319,1.977,9.599,0.069299996,0.0919875,0.37867498,0.095762,-0.036963,-0.501615,0.858979,0
9560,-0.91395,2.1720002,11.116951,-0.566,0.15,1.523,-0.346,2.019,9.59,0.2088625,0.155925,0.5245625,0.09892,-0.03601,-0.493352,0.863435,0
9600,-0.91095006,2.5189502,10.102051,-0.528,0.355,0.484,-0.343,2.123,9.567,0.2292125,-0.117837496,0.6087125,0.10373,-0.03765,-0.483869,0.868154,0
9641,-0.88695,1.0540501,11.337001,-0.71,-1.174,2.061,-0.262,2.106,9.574,-0.3108875,-0.080575,0.4767125,0.099386,-0.03835,-0.475635,0.873168,0
9680,-1.19805,0.324,12.406951,-0.795,-1.555,2.587,-0.321,1.895,9.616,0.1951125,0.23375,0.698225,0.093505,-0.030983,-0.466494,0.879022,0
9720,-0.94500005,1.215,7.9920006,-0.584,-0.833,-1.602,-0.355,2.046,9.584,0.6329125,0.157025,0.5874,0.102783,-0.032198,-0.45392,0.884508,0
9760,-1.4500501,1.09305,7.1970005,-1.116,-1.096,-2.362,-0.327,2.186,9.554,-0.0286,-0.061325,0.360525,0.107783,-0.035387,-0.446296,0.887665,0
9801,-1.5169501,0.42900002,10.056001,-1.183,-1.641,0.47,-0.328,2.063,9.581,-0.48345,0.2006125,0.3988875,0.102317,-0.031762,-0.440231,0.891469,0
9840,-1.23195,0.573,10.410001,-0.771,-1.265,0.705,-0.413,1.864,9.618,-0.0584375,0.103675,0.5160375,0.095219,-0.022454,-0.432588,0.896267,0
9880,-1.53795,1.18095,8.703,-1.048,-0.675,-0.915,-0.477,1.846,9.619,0.131175,0.1442375,0.5693875,0.096189,-0.01809,-0.422763,0.900939,0
9920,-1.1220001,1.5090001,8.59605,-0.6,-0.377,-1.017,-0.516,1.876,9.611,0.05335,-0.0347875,0.7173375,0.098473,-0.015722,-0.412177,0.90563,0
9961,-0.64095,1.8709501,8.385,-0.17,-0.027,-1.234,-0.469,1.893,9.61,-0.0691625,-0.0561,0.6908,0.098504,-0.016933,-0.399738,0.911163,0
10002,-0.79605,1.8870001,9.30405,-0.335,0.021,-0.384,-0.427,1.858,9.619,-0.21395,0.0100375,0.5853375,0.096158,-0.016494,-0.388023,0.916471,0
10040,-0.79605,1.9069501,9.802051,-0.37,0.111,0.174,-0.421,1.797,9.631,-0.1425875,0.0143,0.5352875,0.093217,-0.015043,-0.378235,0.920881,0
10080,-0.906,2.148,9.349951,-0.485,0.344,-0.288,-0.413,1.793,9.632,-0.021175,-0.0188375,0.4841375,0.093145,-0.014518,-0.369207,0.924557,0
10120,-0.94500005,2.2699502,9.438001,-0.533,0.452,-0.19,-0.406,1.808,9.629,-0.104225,-0.011275,0.4873,0.093759,-0.014236,-0.360741,0.927832,0
10160,-0.49695003,2.33505,10.102051,-0.093,0.519,0.462,-0.396,1.809,9.63,-0.004125,0.0015125,0.493625,0.094422,-0.013933,-0.351658,0.93125,0
10201,-0.62895006,2.5189502,9.522,-0.27,0.629,-0.095,-0.355,1.89,9.616,0.1087625,-0.115775,0.410575,0.09725,-0.016559,-0.34365,0.933901,0
10240,-0.84705,2.53905,9.76605,-0.518,0.585,0.16,-0.324,1.947,9.605,-0.0286,4.13E-04,0.3914625,0.099561,-0.018139,-0.336649,0.936175,0
10280,-0.76305,2.30205,10.64805,-0.467,0.291,1.008,-0.312,1.967,9.602,0.08745,-0.0902,0.393525,0.10048,-0.018513,-0.329658,0.938555,0
10320,-0.77895004,2.23005,10.011001,-0.506,0.195,0.419,-0.267,2.026,9.591,0.104499996,-0.0507375,0.361625,0.102739,-0.020775,-0.323038,0.940563,0
10360,-0.112050004,1.4250001,10.461,0.183,-0.637,0.971,-0.251,1.999,9.597,-0.1777875,-0.0070125,0.3232625,0.101239,-0.020438,-0.316834,0.94284,0
10401,0.26595002,0.80505,11.478001,0.471,-1.042,1.839,-0.213,1.846,9.628,-0.21615,0.053625,0.29975,0.093238,-0.019216,-0.3114,0.945498,0
10440,-0.351,0.52005005,11.00895,-0.134,-1.212,1.208,-0.246,1.743,9.647,0.1332375,0.3136375,0.4137375,0.08884,-0.015331,-0.305009,0.948072,0
10480,-0.42795002,1.27695,8.73495,-0.082,-0.53,-0.942,-0.339,1.81,9.632,0.3356375,0.20487499,0.55233747,0.09371,-0.010875,-0.295146,0.950783,0
10520,-0.17595,0.78405005,9.382951,0.151,-1.067,-0.255,-0.307,1.815,9.632,0.0012375,-0.0688875,0.512875,0.093562,-0.011594,-0.285601,0.953699,0
10560,0.38805002,0.642,10.51305,0.638,-1.083,0.85,-0.256,1.724,9.65,-0.0669625,0.1750375,0.5097125,0.088442,-0.011811,-0.275776,0.957071,0
10600,-0.079950005,1.0489501,10.309951,0.213,-0.621,0.637,-0.281,1.669,9.659,0.0672375,0.2805,0.427625,0.086197,-0.009016,-0.266917,0.959814,0
10641,-0.65505004,1.7010001,8.50695,-0.269,-0.041,-1.145,-0.384,1.73,9.645,0.2844875,0.290125,0.5416125,0.090677,-0.003919,-0.257516,0.962001,0
10680,-0.68100005,1.8349501,7.9849505,-0.231,-0.017,-1.639,-0.449,1.842,9.621,0.08855,0.2039125,0.5831375,0.097149,-0.001079,-0.246518,0.964256,0
10720,-0.46305,1.6000501,8.967,0.037,-0.26,-0.654,-0.5,1.853,9.616,-0.0743875,0.18259999,0.70454997,0.098328,0.002688,-0.233623,0.967338,0
10760,-0.31005,1.54305,9.1369505,0.184,-0.282,-0.498,-0.484,1.822,9.623,-0.091437496,0.106975,0.750475,0.096511,0.003533,-0.220406,0.970615,0
10800,-0.13305001,1.7340001,9.337951,0.354,-0.052,-0.301,-0.477,1.781,9.631,-0.1533125,0.2816,0.8047875,0.094246,0.005308,-0.20451,0.974302,0
10841,-0.54495,2.124,8.995951,-0.016,0.364,-0.643,-0.527,1.759,9.632,-0.1203125,0.2443375,0.816475,0.093568,0.009572,-0.188643,0.977531,0
10880,-0.20700002,2.2030501,9.118051,0.344,0.42,-0.518,-0.534,1.772,9.63,-0.1373625,0.2134,0.834625,0.09416,0.011273,-0.172219,0.980483,0
10920,-0.31695002,2.124,9.486,0.233,0.366,-0.152,-0.546,1.757,9.632,-0.1863125,0.2773375,0.7462125,0.09319,0.013639,-0.156545,0.983169,0
10960,-0.52605003,2.11695,10.156951,0.073,0.379,0.512,-0.591,1.731,9.634,-0.1010625,0.2497,0.817575,0.092048,0.017486,-0.141332,0.985518,0
11000,-0.22605,2.15805,10.2960005,0.417,0.385,0.694,-0.607,1.753,9.629,-0.005225,0.225225,0.865425,0.092986,0.019661,-0.124528,0.987653,0
11040,-0.43500003,1.95,10.839001,0.165,0.168,1.192,-0.614,1.793,9.621,0.094875,0.30085,0.866525,0.094723,0.021387,-0.107377,0.989464,0
11080,-1.23195,2.0770502,10.26,-0.55,0.213,0.65,-0.675,1.856,9.605,0.1076625,0.2539625,0.9614,0.098041,0.025938,-0.089772,0.990785,0
11120,-0.52095,1.9450501,10.64805,0.136,0.051,1.035,-0.654,1.882,9.602,-0.173525,-0.0081125,0.96029997,0.098485,0.026445,-0.070248,0.992303,0
11161,-1.2030001,0.58695,12.505051,-0.615,-1.157,2.87,-0.582,1.743,9.632,-0.3557125,-0.00385,0.8793125,0.090463,0.02489,-0.053315,0.99416,0
11200,-1.263,0.41295,11.44995,-0.636,-1.18,1.56,-0.602,1.643,9.649,0.29205,0.3210625,1.0987625,0.085148,0.027951,-0.034118,0.995391,0
11240,-1.3369501,1.4950501,7.7509503,-0.66,-0.291,-1.961,-0.661,1.803,9.616,0.484825,0.0589875,1.0657625,0.092855,0.032655,-0.013086,0.995057,0
11280,-0.64500004,1.2529501,7.9900503,-0.084,-0.651,-1.622,-0.55,1.903,9.604,-0.0754875,-0.121,0.8355875,0.097437,0.028706,0.004936,0.994815,0
11320,-0.69105005,0.77205,10.06305,-0.143,-1.029,0.425,-0.537,1.792,9.626,-0.2992,0.2613875,0.63745,0.091281,0.029267,0.019082,0.995212,0
11361,-1.2420001,1.11195,9.927,-0.632,-0.586,0.274,-0.607,1.69,9.64,0.010725,0.172975,0.5853375,0.085541,0.033759,0.030749,0.995287,0
11400,-1.1359501,1.50195,8.301001,-0.466,-0.242,-1.416,-0.677,1.727,9.629,0.15565,0.18259999,0.5990875,0.086933,0.038412,0.042183,0.994579,0
11440,-1.35195,1.96905,8.23695,-0.591,0.185,-1.388,-0.756,1.775,9.614,-0.1596375,0.109037496,0.60555,0.088765,0.043626,0.053715,0.993645,0
11480,-0.91095006,1.6480501,9.634951,-0.148,-0.062,0.002,-0.75,1.711,9.627,-0.2778875,-0.0209,0.5586625,0.084928,0.044104,0.065344,0.993263,0
11520,-0.78900003,1.557,9.87705,-0.063,-0.071,0.229,-0.713,1.624,9.644,-0.2011625,0.011,0.5405125,0.079955,0.04271,0.076518,0.992938,0
11561,-1.15995,1.9279501,9.649051,-0.439,0.344,-0.009,-0.718,1.576,9.652,-0.12979999,0.1005125,0.53845,0.077511,0.044326,0.08694,0.992203,0
11600,-0.43005002,2.1649501,9.25905,0.277,0.548,-0.427,-0.685,1.616,9.648,0.0097625,-0.113575,0.5245625,0.078963,0.043005,0.097049,0.991209,0
11640,-0.63600004,2.361,8.93805,-0.001,0.674,-0.706,-0.625,1.681,9.641,0.0044,-0.039049998,0.36905,0.082241,0.040975,0.105553,0.990159,0
11680,-0.67200005,2.4480002,9.06,-0.085,0.711,-0.578,-0.581,1.726,9.635,-0.08195,-0.114675,0.294525,0.084516,0.039522,0.11179,0.989342,0
11721,-0.85095006,2.4550502,9.61995,-0.302,0.713,-0.02,-0.541,1.738,9.636,-0.1106875,-0.028324999,0.2135375,0.085057,0.037922,0.116934,0.988763,0
11760,-0.69600004,2.32995,10.152,-0.167,0.569,0.514,-0.526,1.759,9.633,-0.039325,-0.10395,0.1731125,0.086229,0.037592,0.120554,0.988239,0
11800,-0.753,2.388,10.19505,-0.253,0.586,0.56,-0.497,1.796,9.627,0.045925,-0.0677875,0.1390125,0.088162,0.036659,0.123097,0.98779,0
11840,-0.77895004,2.4190502,10.42695,-0.306,0.573,0.797,-0.47,1.837,9.621,0.0405625,-0.10395,0.1166,0.090379,0.035638,0.125412,0.987336,0
11880,-0.648,2.21805,10.530001,-0.186,0.283,0.9,-0.439,1.882,9.614,0.081125,-0.10505,0.1123375,0.092757,0.034689,0.127405,0.986894,0
11921,0.00705,1.5979501,10.99005,0.374,-0.293,1.361,-0.359,1.87,9.619,-0.095699996,-0.216975,0.0963875,0.092645,0.030709,0.129169,0.986807,0
11960,0.064950004,0.81195,12.24705,0.33,-0.946,2.599,-0.275,1.747,9.645,-0.138325,0.0015125,0.082499996,0.086836,0.025744,0.130653,0.987282,0
12000,-0.16695,0.53895,10.908001,0.171,-1.184,1.096,-0.328,1.708,9.651,0.38995,0.3603875,0.1975875,0.084738,0.028772,0.133685,0.986975,0
12040,-0.79395,0.69705003,7.5109506,-0.323,-1.168,-2.111,-0.465,1.863,9.616,0.621225,0.3273875,0.2380125,0.091246,0.03689,0.138058,0.985521,0
12080,-0.05595,0.043950003,8.48805,0.436,-1.934,-1.107,-0.49,1.974,9.593,-0.0595375,-0.0092125,0.2380125,0.09658,0.039442,0.14288,0.984226,0
12120,0.08895,-0.381,10.915951,0.525,-2.041,1.318,-0.484,1.701,9.645,-0.24915,0.4126375,0.2189,0.082463,0.03745,0.147636,0.984886,0
12160,-0.076050006,0.432,9.798,0.541,-1.136,0,-0.609,1.599,9.656,0.1502875,0.4211625,0.30827498,0.076082,0.043443,0.153658,0.984232,0
12200,0.013950001,0.94395006,8.02305,0.675,-0.685,-1.625,-0.661,1.625,9.648,0.095975,0.223025,0.2743125,0.076711,0.046774,0.159762,0.983058,0
12240,0.381,0.87495005,9.087001,1.044,-0.699,-0.571,-0.676,1.57,9.656,-0.2204125,0.19965,0.2305875,0.07331,0.04761,0.165347,0.982353,0
12281,-0.24795002,1.131,9.51,0.428,-0.323,-0.167,-0.673,1.453,9.674,-0.172425,0.18259999,0.109175,0.067457,0.046584,0.169024,0.982196,0
12320,-0.28395,1.0999501,9.529051,0.408,-0.267,-0.167,-0.681,1.357,9.688,-0.31515,0.086625,0.16885,0.062367,0.046279,0.171848,0.982057,0
12360,-0.01305,1.059,11.019,0.671,-0.162,1.311,-0.684,1.21,9.707,-0.291775,0.2102375,0.1282875,0.05445,0.045502,0.175821,0.981861,0
12400,-0.624,1.2240001,10.10595,0.11,0.06,0.394,-0.723,1.151,9.711,-0.023375,0.0686125,0.13145,0.051259,0.046947,0.178321,0.981514,0
12441,-0.006,1.23105,9.264001,0.711,0.078,-0.451,-0.711,1.147,9.713,-0.1084875,0.0419375,0.14533749,0.051071,0.046432,0.181221,0.981017,0
12480,-0.67695004,1.1719501,10.38195,-0.005,0.077,0.685,-0.716,1.08,9.72,-0.2011625,0.1687125,0.042075,0.04734,0.046235,0.18321,0.980844,0
12520,-0.60705,1.521,9.55305,0.148,0.449,-0.172,-0.747,1.062,9.72,0.0055,0.004675,0.176275,0.046243,0.047612,0.185579,0.980385,0
12560,-1.00905,1.75995,8.875951,-0.259,0.657,-0.849,-0.748,1.099,9.716,-0.14905,0.109037496,0.0941875,0.047794,0.048233,0.188248,0.979771,0
12600,-1.4430001,1.3800001,9.924001,-0.613,0.326,0.199,-0.816,1.049,9.716,-0.3014,-0.0325875,0.176275,0.044394,0.051107,0.19091,0.97927,0
12641,-0.92595005,1.09305,11.18595,-0.144,0.141,1.451,-0.768,0.948,9.73,-0.2651,-0.163625,0.261525,0.039629,0.047758,0.195285,0.978781,0
12680,-1.08105,1.3219501,10.762051,-0.254,0.404,0.849,-0.726,0.944,9.733,0.2429625,-0.0826375,0.528825,0.039715,0.046123,0.20232,0.977426,0
12720,0.30600002,2.22495,8.325001,0.924,1.107,-1.423,-0.624,1.153,9.718,0.341,-0.078375,0.55439997,0.050729,0.043791,0.213341,0.974676,0
12760,-0.14295001,2.28195,8.847,0.431,0.98,-0.864,-0.565,1.297,9.703,0.1428625,-0.10395,0.37867498,0.058262,0.042903,0.221438,0.972486,0
12801,0.70605004,1.84695,9.879001,1.171,0.426,0.232,-0.435,1.398,9.696,0.060775,-0.0262625,0.2880625,0.064493,0.038039,0.228181,0.970735,0
12840,0.108,1.7920501,10.894051,0.447,0.334,1.203,-0.391,1.434,9.693,0.1034,0.09625,0.1496,0.066731,0.036646,0.232171,0.96969,0
12880,0.028950002,2.292,10.432051,0.438,0.762,0.688,-0.397,1.539,9.676,0.3100625,0.1016125,0.2061125,0.071717,0.038377,0.235562,0.968449,0
12920,0.17505,1.605,9.369,0.62,-0.03,-0.273,-0.361,1.667,9.657,0.1610125,-0.0262625,-0.00275,0.078577,0.038336,0.237903,0.967345,0
12960,-1.0380001,0.513,10.875001,-0.684,-1.103,1.201,-0.351,1.607,9.667,-0.2267375,-0.0859375,-0.0730125,0.075673,0.036914,0.235781,0.968151,0
13001,-0.15495001,-0.10095,11.277,0.195,-1.518,1.58,-0.345,1.423,9.696,0.0661375,0.1835625,0.1304875,0.066495,0.034413,0.236601,0.968717,0
13040,-1.6009501,1.02495,8.227051,-1.088,-0.43,-1.59,-0.478,1.493,9.68,0.451825,0.1249875,0.192225,0.068276,0.042073,0.239131,0.967669,0
13080,-0.79095006,1.488,7.59,-0.359,-0.137,-2.075,-0.43,1.622,9.661,0.1194875,-0.2446125,0.2550625,0.075109,0.041642,0.243407,0.966114,0
13120,0.47595003,0.91995007,9.735001,0.781,-0.646,0.047,-0.305,1.559,9.677,-0.3023625,-0.214775,-0.00275,0.073189,0.034568,0.246337,0.965798,0
13161,-0.897,0.55905,11.404051,-0.643,-0.822,1.694,-0.241,1.38,9.705,-0.3535125,-0.0336875,-0.2563,0.065097,0.029088,0.243159,0.967362,0
13200,-1.27695,0.65205,11.172001,-1.008,-0.668,1.453,-0.258,1.309,9.715,0.0650375,0.0430375,-0.0826375,0.061798,0.028981,0.240069,0.968353,0
13240,-0.91605,1.31505,9.05805,-0.597,-0.045,-0.65,-0.315,1.352,9.707,0.1599125,0.0259875,0.022824999,0.06325,0.032236,0.239332,0.968338,0
13280,-0.61695004,1.41795,9.040951,-0.245,0.027,-0.67,-0.367,1.388,9.7,-9.63E-04,0.0994125,0.03025,0.064401,0.035334,0.239944,0.968003,0
13320,-0.39900002,1.4059501,9.394951,-0.017,0.019,-0.316,-0.377,1.382,9.701,-0.07865,-0.1263625,-0.0389125,0.064092,0.035443,0.236868,0.968777,0
13361,-0.76995003,1.1040001,9.61995,-0.403,-0.23,-0.092,-0.359,1.333,9.708,-0.122375,-0.0570625,-0.0804375,0.061813,0.03386,0.235391,0.969341,0
13400,-1.0519501,1.1400001,9.711,-0.659,-0.14,-0.004,-0.388,1.268,9.716,-0.1266375,-0.063525,0.0259875,0.058362,0.034532,0.234644,0.969713,0
13440,-0.57105005,1.08105,9.948001,-0.189,-0.14,0.218,-0.368,1.216,9.723,-0.124575,-0.1093125,0.0803,0.055843,0.032842,0.235912,0.969612,0
13480,-0.63795,1.3219501,10.07295,-0.281,0.172,0.295,-0.358,1.176,9.729,-0.01155,0.0078375,0.1016125,0.053999,0.032094,0.237445,0.969367,0
13520,-0.54195005,1.7629501,9.249001,-0.148,0.538,-0.474,-0.382,1.218,9.723,0.0033,0.005775,0.0878625,0.055817,0.033938,0.23927,0.968752,0
13560,-0.06795,1.7839501,9.537001,0.299,0.548,-0.187,-0.368,1.233,9.721,-0.12979999,0.0259875,0.0111375,0.056624,0.033442,0.240269,0.968475,0
13601,-0.43500003,1.93305,9.690001,-0.068,0.722,-0.091,-0.408,1.225,9.721,-0.0446875,0.23375,-0.0996875,0.05575,0.035289,0.239694,0.968603,0
13640,-0.51600003,2.12205,8.96895,0.011,0.849,-0.762,-0.488,1.275,9.711,-0.0180125,0.071775,-0.0741125,0.057357,0.039808,0.238087,0.96873,0
13680,-0.33900002,2.11995,9.12195,0.175,0.774,-0.563,-0.529,1.322,9.702,-0.1458875,0.2176625,-0.129525,0.059269,0.042337,0.236545,0.968886,0
13720,-0.87795,2.1769502,9.469951,-0.275,0.844,-0.217,-0.623,1.321,9.697,-0.121275,0.138875,-0.195525,0.058206,0.046821,0.233791,0.969412,0
13760,-0.88695,2.2110002,9.502951,-0.212,0.841,-0.184,-0.674,1.336,9.691,-0.056375,0.053625,-0.145475,0.0585,0.049346,0.230776,0.969992,0
13801,-0.957,2.25105,9.979951,-0.238,0.888,0.284,-0.714,1.358,9.685,-0.095699996,0.0259875,-0.1816375,0.059277,0.051482,0.227904,0.970513,0
13840,-0.966,2.151,10.434001,-0.206,0.781,0.749,-0.746,1.356,9.683,-0.093637496,0.106975,-0.212575,0.059018,0.052818,0.224249,0.971308,0
13880,-1.131,1.7149501,10.413,-0.333,0.343,0.726,-0.796,1.359,9.679,-0.0510125,0.020624999,-0.263725,0.058754,0.055134,0.219913,0.972186,0
13920,-2.058,1.34895,10.84605,-1.176,0.02,1.165,-0.88,1.327,9.676,-0.070125,0.038775,-0.094325,0.056546,0.058661,0.215878,0.973014,0
13960,-0.80100006,1.1910001,11.064,0.104,-0.113,1.38,-0.894,1.298,9.679,-0.004125,-0.086899996,0.0367125,0.054938,0.058984,0.215903,0.973081,0
14001,-1.02405,1.4299501,11.739,-0.163,0.132,2.044,-0.857,1.297,9.682,0.12375,0.0078375,-0.0655875,0.055412,0.057218,0.215518,0.973245,0
14040,-1.08405,1.4250001,11.064,-0.225,0.064,1.384,-0.85,1.351,9.675,0.1727,-0.164725,0.03025,0.058159,0.05739,0.214561,0.973286,0
14080,0.10095,1.2220501,11.112,0.83,-0.163,1.418,-0.735,1.375,9.681,0.0033,-0.1871375,-0.117837496,0.060678,0.051675,0.214144,0.973545,0
14120,-0.28605002,0.657,10.34595,0.375,-0.673,0.643,-0.66,1.324,9.694,-0.0851125,-0.10615,-0.3265625,0.059141,0.047238,0.209443,0.974886,0
14161,-0.94200003,0.24000001,10.734,-0.271,-0.951,1.02,-0.668,1.183,9.711,-0.31845,0.153725,-0.3553,0.051907,0.045873,0.202828,0.97676,0
14200,-0.69105005,0.21405001,10.38195,0.053,-0.839,0.655,-0.734,1.044,9.723,-0.01375,0.0270875,-0.20405,0.04367,0.047092,0.19804,0.978087,0
14240,-0.43695003,0.20400001,9.55305,0.275,-0.76,-0.185,-0.71,0.965,9.733,-0.0627,-0.0603625,-0.1508375,0.041214,0.045164,0.194516,0.978991,0
14280,-0.08505,0.31695002,10.04205,0.598,-0.583,0.296,-0.68,0.896,9.741,-0.022275,-0.0017875,-0.129525,0.038217,0.042927,0.192108,0.979689,0
14320,0.055050004,0.40095,9.469951,0.668,-0.479,-0.296,-0.627,0.86,9.748,-0.0020625,-0.0081125,-0.1923625,0.037085,0.039804,0.189108,0.980447,0
14361,-0.58995,0.61605,9.333,0.049,-0.216,-0.42,-0.632,0.828,9.751,0.0246125,0.1122,-0.1475375,0.035565,0.039731,0.185698,0.981158,0
14400,-0.41595003,0.97005004,8.47605,0.233,0.097,-1.275,-0.639,0.874,9.746,0.1951125,-0.1029875,-0.009075,0.037857,0.040324,0.184226,0.981326,0
14440,0.12195001,1.1880001,7.9210505,0.664,0.22,-1.83,-0.539,0.965,9.744,0.05335,-0.1359875,-0.0411125,0.043377,0.036142,0.183899,0.981322,0
14480,-0.32205,1.15995,9.1699505,0.177,0.174,-0.578,-0.489,0.983,9.744,0.0479875,-0.0570625,-0.0804375,0.04481,0.033752,0.182537,0.981597,0
14521,-0.07305,1.3060501,8.44995,0.353,0.24,-1.296,-0.422,1.053,9.74,0.1716,-0.2233,-0.061325,0.049016,0.030957,0.18106,0.981761,0
14560,-0.22905001,1.3969501,8.742001,0.114,0.279,-0.95,-0.359,1.123,9.735,-9.63E-04,-0.0103125,-0.129525,0.053144,0.028346,0.179161,0.981974,0
14600,-0.13800001,1.55505,9.087001,0.203,0.395,-0.647,-0.34,1.156,9.732,0.0598125,-0.0763125,-0.079475,0.055077,0.027589,0.177122,0.982258,0
14640,-0.303,1.863,8.88105,0.021,0.629,-0.844,-0.321,1.222,9.724,0.0565125,-0.00385,-0.088,0.058593,0.027152,0.175519,0.982355,0
14681,-0.384,2.04795,8.890051,-0.052,0.756,-0.835,-0.328,1.286,9.716,0.0160875,-0.00495,-0.0741125,0.06184,0.028017,0.173853,0.982428,0
14720,-0.47100002,1.8559501,9.592051,-0.13,0.511,-0.067,-0.332,1.327,9.71,-0.0532125,-0.039049998,-0.06765,0.064474,0.028703,0.172388,0.982497,0
14760,-0.58095,1.5880501,10.410001,-0.235,0.243,0.696,-0.337,1.336,9.709,-0.0254375,-0.0177375,-0.0240625,0.064316,0.028702,0.17138,0.982684,0
14800,-0.65505004,1.46595,10.810051,-0.293,0.124,1.092,-0.36,1.333,9.708,0.0055,0.105875,0.0963875,0.064026,0.029736,0.16967,0.982969,0
14841,-0.67695004,1.6890001,10.68795,-0.269,0.336,0.973,-0.398,1.352,9.704,0.128975,0.1079375,0.2198625,0.064675,0.032128,0.173074,0.982257,0
14880,-0.44700003,1.7580001,9.868951,0.013,0.322,0.153,-0.422,1.421,9.693,0.044825,-0.00495,0.26675,0.067718,0.034186,0.177895,0.981121,0
14920,-0.39600003,1.14495,10.97805,0.007,-0.236,1.277,-0.402,1.38,9.7,-0.2343,0.021724999,0.16775,0.065385,0.033057,0.182086,0.980549,0
14960,-0.423,0.81495005,12.076951,0.024,-0.461,2.376,-0.405,1.251,9.718,-0.2107875,0.0578875,0.16885,0.058978,0.032259,0.185275,0.980384,0
15000,-0.66,0.66195005,11.268001,-0.227,-0.512,1.536,-0.426,1.166,9.727,-0.0691625,0.0738375,0.143275,0.054345,0.032684,0.188531,0.980017,0
15041,-0.91095006,0.55395,10.5400505,-0.439,-0.567,0.796,-0.459,1.112,9.732,-0.0297,0.0919875,0.1857625,0.051219,0.034023,0.191619,0.979541,0
15080,-0.768,0.42000002,9.867001,-0.262,-0.675,0.111,-0.513,1.056,9.736,1.38E-04,0.0473,0.158125,0.04779,0.036293,0.195125,0.97894,0
15120,-1.43295,0.27405003,9.637051,-0.844,-0.761,-0.121,-0.585,1.007,9.737,-0.0265375,0.1122,0.126225,0.044509,0.039473,0.197333,0.978529,0
15160,-0.933,0.453,9.606001,-0.274,-0.512,-0.135,-0.653,0.962,9.737,-9.63E-04,0.087725,0.16775,0.041462,0.042545,0.200353,0.97792,0
15200,-1.04505,0.65895003,9.364051,-0.353,-0.293,-0.379,-0.682,0.947,9.736,0.0075625,0.015262499,0.025024999,0.040325,0.043927,0.202158,0.977535,0
15241,-0.85800004,0.76005006,9.68295,-0.15,-0.165,-0.067,-0.707,0.914,9.738,-0.08195,0.069575,-0.0303875,0.038432,0.044849,0.202032,0.977596,0
15280,-1.0330501,1.07805,9.297001,-0.237,0.208,-0.512,-0.783,0.908,9.733,0.060775,0.1420375,-0.0325875,0.037346,0.048572,0.201531,0.977563,0
15320,-0.97095007,1.2529501,8.524051,-0.143,0.268,-1.198,-0.823,0.956,9.725,-0.022275,0.0493625,-0.0730125,0.039436,0.051057,0.200503,0.977566,0
15360,-1.3759501,1.14495,9.06,-0.477,0.192,-0.675,-0.897,0.951,9.719,-0.0105875,0.109037496,0.0122375,0.038458,0.054671,0.199628,0.977589,0
15401,-1.1389501,1.3920001,7.93695,-0.199,0.378,-1.782,-0.93,1.01,9.709,0.1343375,-0.063525,0.0878625,0.04102,0.056998,0.200681,0.977136,0
15440,-1.42095,1.4250001,8.16495,-0.436,0.328,-1.472,-0.952,1.087,9.699,-0.054175,-0.0347875,0.13255,0.04456,0.058976,0.202437,0.976501,0
15480,-0.88005006,1.5810001,9.18,0.079,0.464,-0.516,-0.95,1.115,9.696,0.044825,-0.0666875,0.1964875,0.045782,0.059345,0.205785,0.975722,0
15520,-0.91095006,1.7839501,8.75805,-0.005,0.581,-0.933,-0.892,1.203,9.691,0.1013375,-0.1678875,0.0686125,0.050638,0.057499,0.208133,0.975094,0
15560,-0.57105005,1.794,9.60105,0.288,0.537,-0.101,-0.847,1.246,9.69,-0.0532125,-0.031625,0.021724999,0.05324,0.055723,0.208993,0.974875,0
15601,-0.87495005,1.69305,10.02705,-0.037,0.426,0.335,-0.833,1.262,9.689,-0.003025,-0.0166375,-0.10175,0.054208,0.055191,0.208294,0.975001,0
15640,-1.07595,1.605,10.576051,-0.239,0.305,0.883,-0.836,1.288,9.685,0.0917125,-6.88E-04,-0.0804375,0.055597,0.055468,0.206354,0.97532,0
15680,-1.0210501,1.9399501,9.7900505,-0.188,0.554,0.106,-0.832,1.38,9.673,0.2739,-0.0859375,-0.027224999,0.060589,0.056203,0.205124,0.97524,0
15720,-0.51900005,1.866,9.795,0.28,0.376,0.133,-0.797,1.489,9.659,0.0405625,-0.179575,-0.1060125,0.066317,0.055417,0.20382,0.975186,0
15761,-0.56595004,1.09695,11.413951,0.092,-0.391,1.793,-0.705,1.44,9.674,-0.1607375,-0.0774125,-0.2861375,0.064962,0.050113,0.199849,0.976385,0
15800,-1.2919501,1.0999501,11.34195,-0.54,-0.263,1.647,-0.739,1.352,9.684,0.029975,0.0163625,-0.1645875,0.060372,0.050715,0.195355,0.977557,0
15840,-0.72705,1.23405,9.975,-0.032,-0.131,0.282,-0.689,1.357,9.687,-0.08085,-0.385275,-0.1401125,0.061279,0.047625,0.192463,0.97823,0
15880,0.03795,0.48705003,12.26595,0.586,-0.72,2.541,-0.557,1.188,9.718,-0.4675,-0.1093125,-0.1816375,0.054205,0.039501,0.189451,0.979596,0
15920,0.060000002,0.25500003,11.84895,0.581,-0.779,2.11,-0.526,1.024,9.738,-0.071225,0.0078375,-0.253,0.046318,0.036183,0.185594,0.980867,0
15961,-0.60495,0.36,9.228001,-0.057,-0.622,-0.521,-0.547,0.96,9.744,-0.01155,0.12925,-0.279675,0.043178,0.036359,0.180406,0.981971,0
16000,-0.23595001,-0.015000001,9.58005,0.35,-0.89,-0.174,-0.583,0.874,9.75,-0.0680625,0.0473,-0.146575,0.038706,0.0372,0.17659,0.982819,0
16040,-0.25500003,0.18495001,8.7300005,0.319,-0.65,-1.049,-0.592,0.84,9.752,0.02035,0.070675,-0.1412125,0.037011,0.037244,0.173996,0.983345,0
16080,-0.025050001,0.171,8.90505,0.575,-0.653,-0.86,-0.589,0.816,9.754,-0.16499999,-0.0592625,-0.112475,0.035914,0.036801,0.171538,0.983834,0
16121,-0.28395,0.25005,9.71895,0.259,-0.408,-0.081,-0.559,0.694,9.766,-0.105325,0.06215,-0.110275,0.030699,0.034565,0.169436,0.984456,0
16160,0,0.79605,8.79,0.546,0.113,-0.983,-0.532,0.676,9.768,-0.0680625,-0.0570625,-0.0517,0.029439,0.032596,0.168063,0.984797,0
16200,-0.09,0.97305006,9.205951,0.407,0.326,-0.579,-0.489,0.64,9.773,-0.21395,0.019524999,-0.0730125,0.028068,0.030091,0.166967,0.985103,0
16240,-0.51105005,1.128,9.12495,-0.009,0.508,-0.663,-0.494,0.608,9.775,-0.066,-0.047575,-0.0506,0.026415,0.030051,0.165866,0.985336,0
16280,-0.31005,1.2430501,9.043051,0.147,0.615,-0.746,-0.446,0.623,9.776,-0.0925375,-0.098725,0.005775,0.027529,0.02766,0.165546,0.985429,0
16320,-0.51600003,1.3440001,9.055051,-0.059,0.681,-0.77,-0.444,0.666,9.773,0.02035,0.003575,0.0952875,0.029754,0.028028,0.166492,0.985195,0
16360,-0.19500001,1.6309501,8.517,0.21,0.863,-1.256,-0.401,0.757,9.769,0.0490875,-0.117837496,0.158125,0.034643,0.026751,0.169163,0.984615,0
16401,-0.34395,1.6020001,8.73495,0.024,0.766,-1.034,-0.365,0.827,9.764,-0.0158125,-0.0911625,0.160325,0.038399,0.025551,0.172239,0.983974,0
16440,-0.15900001,1.22895,9.529051,0.168,0.37,-0.243,-0.316,0.854,9.764,-0.0180125,-0.029424999,0.1166,0.040101,0.023528,0.175098,0.983452,0
16480,-0.19095,1.07295,9.774,0.111,0.193,0.002,-0.302,0.868,9.763,-0.08085,-0.029424999,0.1049125,0.041081,0.022861,0.177096,0.983069,0
16520,-0.79395,0.76905006,10.726951,-0.471,-0.071,0.953,-0.318,0.834,9.765,-0.055275,0.0578875,0.14533749,0.038941,0.023658,0.179119,0.982771,0
16560,-0.45900002,1.02795,10.83405,-0.116,0.191,1.062,-0.332,0.83,9.765,0.011825,0.02915,0.3136375,0.038539,0.024482,0.183708,0.981919,0
16601,-0.15705001,1.0639501,10.36995,0.183,0.208,0.601,-0.333,0.853,9.763,0.012925,-0.0188375,0.34141248,0.039525,0.025013,0.190086,0.980652,0
16640,0.16305001,0.432,11.557051,0.429,-0.384,1.78,-0.279,0.806,9.769,-0.2352625,0.0121,0.226325,0.037363,0.022001,0.195724,0.979699,0
16680,-0.32205,0.20400001,11.802001,-0.002,-0.469,2.016,-0.311,0.673,9.778,-0.2204125,0.1942875,0.16885,0.030208,0.022524,0.199525,0.979167,0
16720,-0.64995,0.05595,11.670001,-0.273,-0.538,1.835,-0.366,0.579,9.782,-0.0265375,0.0803,0.2283875,0.025145,0.024312,0.203036,0.978546,0
16761,-0.054,0.30195,9.64395,0.351,-0.298,-0.192,-0.378,0.597,9.781,0.1247125,0.0664125,0.275275,0.025798,0.025247,0.208293,0.9774,0
16800,-0.24300002,0.03195,10.02,0.146,-0.558,0.229,-0.378,0.585,9.781,-0.0254375,0.061049998,0.1379125,0.025087,0.025219,0.212322,0.976551,0
16840,-0.67395,-0.15405001,9.747001,-0.272,-0.714,-0.043,-0.395,0.564,9.782,0.12265,-0.011275,0.1016125,0.023803,0.025859,0.214313,0.976132,0
16880,-0.76995003,-0.13005,9.43095,-0.324,-0.68,-0.37,-0.438,0.544,9.781,0.081125,0.1016125,0.0367125,0.022296,0.027836,0.215619,0.975826,0
16920,-1.179,-0.028950002,9.43395,-0.676,-0.564,-0.354,-0.494,0.537,9.779,0.080025,-0.0209,-0.0506,0.021327,0.030541,0.215298,0.975837,0
16960,-1.07895,-0.10395,9.538951,-0.518,-0.613,-0.258,-0.516,0.518,9.779,0.010725,-0.0166375,-0.0229625,0.020178,0.031436,0.214298,0.976053,0
17000,-1.2750001,0.30195,9.53205,-0.687,-0.139,-0.242,-0.592,0.48,9.776,-0.01485,0.171875,0.0292875,0.01745,0.034774,0.214153,0.976024,0
17040,-0.657,0.68100005,9.156,0.024,0.182,-0.66,-0.651,0.498,9.772,0.0576125,-0.0507375,0.0495,0.017659,0.037941,0.215212,0.97567,0
17080,-0.77205,0.75705004,9.5460005,-0.112,0.242,-0.237,-0.65,0.506,9.771,-0.1106875,0.106975,-0.036849998,0.018115,0.037982,0.215192,0.975664,0
17121,-0.80595005,0.89595,9.349951,-0.092,0.373,-0.423,-0.711,0.511,9.767,0.1034,0.078099996,0.021724999,0.017687,0.041067,0.215063,0.975575,0
17160,-0.75795,1.0519501,7.9950004,-0.04,0.444,-1.767,-0.708,0.604,9.762,0.080025,-0.086899996,-0.0133375,0.022427,0.041898,0.21518,0.975417,0
17200,-1.00695,0.93405,9.313951,-0.258,0.289,-0.455,-0.735,0.636,9.758,-0.040425,0.13255,0.022824999,0.023632,0.043654,0.21511,0.975327,0
17240,-0.906,1.2049501,8.76795,-0.113,0.497,-0.992,-0.785,0.701,9.749,0.2036375,-0.06985,0.0622875,0.026492,0.046882,0.216095,0.974886,0
17281,-0.82695,1.3369501,8.241,-0.076,0.516,-1.504,-0.74,0.818,9.744,0.08745,-0.1029875,-0.034649998,0.032702,0.04588,0.216162,0.97473,0
17320,-0.94500005,1.27005,9.309,-0.192,0.421,-0.438,-0.747,0.845,9.741,-0.1095875,-0.0231,-0.086899996,0.033709,0.046477,0.215021,0.97492,0
17360,-0.67695004,1.143,9.951,0.036,0.31,0.199,-0.729,0.832,9.743,-0.023375,-0.07095,-0.1304875,0.033957,0.045411,0.212995,0.975406,0
17400,-1.2559501,1.30095,9.793051,-0.504,0.438,0.052,-0.75,0.855,9.74,0.0086625,0.0749375,-0.117837496,0.034634,0.046658,0.210392,0.975888,0
17441,-1.2250501,1.43505,9.82905,-0.418,0.536,0.086,-0.794,0.893,9.733,0.0257125,-0.113575,-0.044275,0.036193,0.049122,0.20893,0.976025,0
17480,-0.492,1.2270001,11.055,0.215,0.284,1.361,-0.719,0.9,9.738,-0.0680625,-0.10615,-0.0847,0.037329,0.045527,0.207932,0.976369,0
17520,-1.0500001,1.14495,11.233951,-0.299,0.214,1.442,-0.71,0.9,9.739,0.0853875,-0.1018875,-0.117837496,0.037625,0.044901,0.205612,0.976878,0
17560,-0.411,0.94200003,10.51095,0.22,0.019,0.758,-0.629,0.92,9.743,-0.0595375,-0.2127125,-0.195525,0.039471,0.040788,0.202835,0.977566,0
17600,-0.25800002,0.18300001,12.43095,0.308,-0.617,2.663,-0.552,0.787,9.759,-0.3642375,-0.115775,-0.2572625,0.03381,0.035609,0.198377,0.978894,0
17641,0.028950002,-0.06795,12.811951,0.531,-0.69,3.029,-0.503,0.622,9.773,-0.223575,0.0089375,-0.2913625,0.026198,0.031382,0.19348,0.980252,0
17680,-0.55395,-0.12495001,11.64795,-0.033,-0.661,1.866,-0.511,0.538,9.778,0.027775,0.0473,-0.2904,0.022081,0.030864,0.187715,0.98149,0
17720,-0.291,-0.064950004,10.309951,0.234,-0.591,0.518,-0.512,0.523,9.779,0.1747625,0.011,-0.1252625,0.02147,0.030619,0.183579,0.982293,0
17760,0.24405001,0.043950003,9.288,0.732,-0.514,-0.531,-0.473,0.555,9.779,0.161975,0.0015125,-0.1337875,0.023613,0.028938,0.181176,0.982741,0
17801,-0.064050004,0.16800001,9.41895,0.392,-0.391,-0.369,-0.446,0.554,9.78,0.0033,0.0334125,-0.1508375,0.023786,0.027474,0.178322,0.9833,0
17840,0.025950002,0.33105,9.28995,0.451,-0.223,-0.574,-0.437,0.55,9.781,0.1727,0.0100375,-0.0847,0.023708,0.026924,0.17635,0.983673,0
17880,0.01905,0.79605,7.8559504,0.403,0.165,-1.96,-0.391,0.633,9.778,0.1940125,-0.097625,-0.110275,0.028574,0.025254,0.174377,0.98394,0
17920,0.013950001,0.90105003,8.542951,0.355,0.199,-1.235,-0.341,0.699,9.775,-0.0083875,0.02915,-0.1678875,0.032126,0.02332,0.171725,0.984344,0
17963,-0.09195001,0.92700005,8.59605,0.251,0.198,-1.179,-0.333,0.728,9.773,0.113025,-0.0539,-0.18493749,0.033758,0.023021,0.168507,0.984853,0
18000,-0.102000006,0.90795004,8.718,0.191,0.124,-1.054,-0.286,0.774,9.771,-0.0297,-0.0422125,-0.2211,0.036567,0.020908,0.16431,0.985508,0
18040,-0.492,0.92505,9.484051,-0.176,0.145,-0.291,-0.313,0.767,9.771,0.064075,0.0653125,-0.146575,0.036098,0.022175,0.160723,0.986089,0
18080,-0.16905001,1.3770001,8.401951,0.134,0.513,-1.373,-0.298,0.862,9.764,0.15565,-0.113575,-0.06765,0.041029,0.022034,0.158821,0.986208,0
18120,-0.43500003,1.6810501,8.44005,-0.132,0.718,-1.324,-0.289,0.956,9.755,0.045925,4.13E-04,-0.0389125,0.04592,0.022324,0.1577,0.986166,0
18160,-0.21000001,1.69305,9.11505,0.071,0.675,-0.638,-0.275,1.013,9.75,-0.020075,-0.0752125,-0.0229625,0.048878,0.02196,0.15721,0.98611,0
18200,-0.44205,1.87995,9.205951,-0.178,0.821,-0.552,-0.257,1.058,9.745,-0.0286,-0.0581625,-0.0303875,0.051302,0.02141,0.156551,0.986104,0
18240,-0.51900005,1.7170501,10.06305,-0.249,0.639,0.308,-0.267,1.076,9.743,-0.099,0.06325,0.023924999,0.052744,0.02263,0.156481,0.986011,0
18280,-0.41595003,1.45905,10.68105,-0.116,0.34,0.964,-0.292,1.09,9.741,-0.01265,-0.0177375,0.125125,0.052608,0.023545,0.15799,0.985757,0
18321,-0.55695003,1.2,11.493001,-0.255,0.095,1.755,-0.302,1.101,9.739,0.098175,0.0589875,0.2156,0.053027,0.024298,0.161003,0.985228,0
18360,-0.47505003,1.3750501,10.52505,-0.161,0.19,0.783,-0.301,1.171,9.731,0.1940125,-0.0826375,0.3328875,0.056458,0.025166,0.166084,0.984172,0
18400,0.10305001,0.92700005,10.437,0.36,-0.251,0.701,-0.266,1.173,9.732,-0.25025,0.0760375,0.260425,0.056693,0.023757,0.172551,0.98308,0
18440,-0.72900003,-0.015000001,12.802051,-0.484,-0.985,3.14,-0.277,0.931,9.758,-0.61448747,0.0237875,0.117699996,0.044313,0.022327,0.175786,0.983177,0
18480,-0.82995003,-0.47505003,13.518001,-0.476,-1.169,3.653,-0.313,0.706,9.776,-0.3014,0.106975,0.3201,0.032562,0.022218,0.179996,0.982877,0
18521,-0.77895004,-0.10095,10.446,-0.425,-0.738,0.667,-0.351,0.642,9.779,0.1364,0.1079375,0.344575,0.028755,0.023619,0.18655,0.98174,0
18560,-1.00905,0.12495001,9.132,-0.557,-0.559,-0.649,-0.382,0.682,9.775,0.111925,-0.022,0.33495,0.030402,0.02586,0.192992,0.980388,0
18600,-0.20700002,0.12495001,9.229951,0.159,-0.585,-0.553,-0.363,0.707,9.774,0.0268125,0.0504625,0.2220625,0.031729,0.025412,0.198679,0.979221,0
18640,-0.94005007,0.13995,9.490951,-0.529,-0.594,-0.29,-0.41,0.731,9.77,0.1491875,0.155925,0.124025,0.032426,0.028209,0.201517,0.978541,0
18681,-0.684,0.57795,8.224951,-0.208,-0.239,-1.548,-0.472,0.811,9.761,0.3623125,0.0589875,0.16555,0.035632,0.032084,0.204198,0.977754,0
18720,-0.63795,0.98505,7.36005,-0.114,0.039,-2.392,-0.511,0.941,9.747,0.1727,0.1186625,0.0708125,0.041615,0.035496,0.206375,0.976943,0
18760,-1.0570501,0.80805004,8.6320505,-0.454,-0.175,-1.117,-0.594,0.979,9.739,0.02255,0.1505625,0.0441375,0.042614,0.04008,0.207207,0.976546,0
18800,-0.89205,0.91305006,8.401951,-0.227,-0.102,-1.341,-0.657,1.015,9.731,0.197175,-0.0273625,0.1144,0.043888,0.043704,0.208713,0.976013,0
18841,-0.71505004,1.167,8.36295,-0.05,0.08,-1.362,-0.657,1.077,9.725,-0.0286,0.0451,0.0836,0.046696,0.044497,0.210492,0.975465,0
18880,-0.933,1.2580501,9.44295,-0.239,0.183,-0.256,-0.7,1.069,9.722,-9.63E-04,0.0345125,0.09955,0.045812,0.046591,0.211997,0.975083,0
18920,-0.56895,1.6720501,8.86905,0.127,0.537,-0.85,-0.685,1.124,9.717,0.13213749,-0.061325,0.073975,0.048613,0.046532,0.213838,0.974548,0
18960,-0.93000007,1.983,8.742001,-0.251,0.76,-0.906,-0.687,1.226,9.705,-0.0499125,4.13E-04,-0.0070125,0.053812,0.047757,0.212865,0.974428,0
19001,-0.64095,1.7989501,10.177951,0.055,0.541,0.496,-0.681,1.229,9.705,-0.0595375,-0.061325,-0.009075,0.05395,0.047444,0.21283,0.974444,0
19040,-0.97095007,1.6720501,9.92895,-0.309,0.397,0.226,-0.657,1.264,9.702,0.0768625,-0.122099996,-0.0847,0.056109,0.046459,0.21175,0.974604,0
19080,-1.026,1.31805,11.425951,-0.387,0.035,1.805,-0.619,1.272,9.703,-0.0286,-0.1243,-0.03355,0.056901,0.044693,0.210254,0.974965,0
19120,-0.56205004,1.18305,11.904,0.021,-0.099,2.197,-0.58,1.271,9.706,0.0928125,-0.267025,-0.0496375,0.057065,0.042103,0.209492,0.975235,0
19161,0.108,0.67800003,11.478001,0.561,-0.615,1.722,-0.424,1.242,9.718,-0.087175,-0.2883375,-0.2253625,0.057609,0.034389,0.206667,0.976108,0
19200,-0.12795001,-0.08400001,12.844951,0.194,-1.18,3.168,-0.331,1.057,9.743,-0.4728625,-0.1551,-0.3339875,0.049516,0.027435,0.200878,0.977979,0
19240,-0.492,-0.26205,12.951,-0.165,-1.095,3.173,-0.324,0.836,9.765,-0.2651,0.078099996,-0.23815,0.038631,0.024625,0.195624,0.979608,0
19280,0.10305001,0.36,9.802051,0.513,-0.378,-0.165,-0.377,0.787,9.767,0.2173875,0.13035,-0.0633875,0.035684,0.026681,0.19321,0.980145,0
19320,0.52005005,0.73095006,7.8769503,0.908,-0.128,-1.889,-0.391,0.849,9.761,0.1067,0.0174625,-0.1475375,0.038755,0.027911,0.191341,0.98036,0
19361,0.53895,0.36,8.78205,0.924,-0.478,-0.991,-0.393,0.832,9.763,-0.1331,-0.0166375,-0.296725,0.037991,0.027669,0.186993,0.981236,0
19400,-0.19800001,0.20895001,9.40695,0.138,-0.571,-0.382,-0.411,0.776,9.767,-0.088275,0.053625,-0.3350875,0.035056,0.027845,0.180473,0.98256,0
19440,-0.483,0.606,8.871,-0.006,-0.123,-0.983,-0.428,0.75,9.768,0.0991375,-0.0763125,-0.1188,0.033833,0.028304,0.176224,0.983361,0
19480,0.093,1.03695,8.19795,0.455,0.227,-1.58,-0.373,0.807,9.766,0.0576125,-0.047575,-0.0719125,0.03724,0.025974,0.174775,0.98356,0
19521,-0.123,1.1380501,8.677051,0.212,0.289,-1.088,-0.335,0.841,9.764,0.0160875,-0.097625,-0.0858,0.039362,0.024194,0.172963,0.983843,0
19560,0.41205,1.11405,8.823,0.656,0.226,-0.924,-0.261,0.876,9.763,0.0235125,-0.10505,-0.1167375,0.041786,0.02081,0.171454,0.984085,0
19600,-0.13800001,1.03695,8.96205,0.079,0.137,-0.8,-0.215,0.897,9.763,0.029975,-0.00385,-0.20405,0.04331,0.018582,0.168198,0.984625,0
19640,-0.25995,1.2049501,8.569051,0,0.259,-1.192,-0.232,0.926,9.76,0.012925,0.03135,-0.10175,0.044652,0.019538,0.16521,0.985053,0
19680,-0.22395001,1.50405,8.83005,0.032,0.529,-0.929,-0.25,0.969,9.755,-0.0319,0.021724999,-0.0581625,0.046676,0.020726,0.1638,0.98517,0
19721,-0.03705,1.69095,9.05805,0.207,0.677,-0.693,-0.235,1.011,9.751,0.0097625,-0.039049998,-0.0166375,0.049021,0.020243,0.163169,0.985171,0
19760,-0.15,1.6380001,9.996,0.06,0.589,0.235,-0.21,1.044,9.748,-0.0691625,-0.0081125,0.004675,0.050886,0.019313,0.163089,0.985108,0
19800,-0.53805,1.41795,11.233951,-0.299,0.345,1.529,-0.231,1.044,9.748,-0.01375,0.0653125,0.038775,0.050662,0.020385,0.163505,0.985029,0
19840,-0.73605,1.2270001,11.61495,-0.456,0.157,1.86,-0.279,1.067,9.744,0.1343375,0.0845625,0.159225,0.051526,0.023214,0.165313,0.98462,0
19880,-0.44700003,1.21905,11.080951,-0.085,0.096,1.337,-0.322,1.126,9.736,0.13213749,0.0845625,0.2743125,0.054017,0.026079,0.169659,0.983675,0
19921,-0.20505,1.1380501,11.148001,0.129,-0.049,1.475,-0.333,1.139,9.734,-0.0947375,0.061049998,0.21779999,0.054327,0.02697,0.174653,0.982759,0
19960,-0.37500003,0.17295001,12.361951,-0.033,-0.861,2.606,-0.333,1.025,9.747,-0.357775,0.0484,0.1475375,0.048476,0.026105,0.177964,0.982495,0
20000,-0.89205,0.09900001,12.51,-0.45,-0.719,2.659,-0.408,0.841,9.761,-0.08085,0.23155,0.3201,0.038432,0.028321,0.182392,0.982066,0
20040,-0.34905002,0.34605002,9.81,0.107,-0.514,-0.047,-0.448,0.854,9.759,0.22495,0.0664125,0.362725,0.038505,0.030749,0.189593,0.980625,0
20080,-0.873,0.21900001,8.541,-0.426,-0.719,-1.226,-0.445,0.921,9.753,0.078925,0.0237875,0.2316875,0.041808,0.031509,0.19483,0.979438,0
20121,-0.60705,0.112950005,8.826,-0.163,-0.794,-0.953,-0.45,0.93,9.752,-0.01265,0.0345125,0.18053749,0.041981,0.031987,0.198906,0.978596,0
20160,-0.94200003,0.192,8.42595,-0.506,-0.733,-1.319,-0.46,0.937,9.75,0.011825,0.015262499,0.0441375,0.042171,0.032677,0.200867,0.978164,0
20200,-1.0360501,0.27795002,9.004951,-0.51,-0.603,-0.695,-0.511,0.889,9.752,-0.023375,0.0653125,0.0867625,0.039225,0.034756,0.201738,0.978036,0
20240,-0.74595004,0.633,8.517,-0.186,-0.256,-1.238,-0.549,0.882,9.751,0.0939125,0.02915,0.075075,0.038414,0.036629,0.203472,0.97764,0
20280,-0.86295,0.9990001,8.42805,-0.287,0.083,-1.33,-0.571,0.911,9.747,-0.0072875,-0.00385,0.0719125,0.039571,0.038074,0.204537,0.977317,0
20321,-0.47805002,0.9990001,8.943001,0.109,0.08,-0.811,-0.585,0.913,9.746,1.38E-04,0.011,0.072875,0.039462,0.038914,0.206263,0.976925,0
20360,-1.01205,1.164,8.68395,-0.419,0.225,-1.052,-0.602,0.945,9.742,0.014025,-0.0166375,0.03025,0.040881,0.040088,0.206829,0.9767,0
20400,-0.84900004,1.3750501,8.86095,-0.25,0.371,-0.898,-0.618,0.977,9.738,0.0044,-0.0891,0.1166,0.042213,0.041412,0.208087,0.976321,0
20440,-0.46305,1.38495,8.976001,0.109,0.367,-0.762,-0.572,1.007,9.737,-0.0072875,-0.045375,0.0356125,0.044173,0.039368,0.209935,0.975923,0
20481,-0.67905,1.6309501,9.0070505,-0.096,0.58,-0.731,-0.57,1.04,9.734,0.0033,-0.0539,0.021724999,0.045865,0.039576,0.209029,0.976031,0
20520,-0.52095,1.57395,9.1060505,0.008,0.493,-0.635,-0.525,1.072,9.733,-0.1170125,-0.1337875,-0.077275,0.048667,0.037763,0.208545,0.97607,0
20560,-0.93000007,1.35105,10.566001,-0.404,0.309,0.818,-0.521,1.039,9.737,-0.1596375,-0.0358875,-0.0889625,0.046409,0.037068,0.206834,0.976571,0
20600,-0.99000007,1.2409501,10.839001,-0.472,0.213,1.088,-0.504,1.027,9.739,0.062975,-0.17105,-0.0644875,0.046043,0.036022,0.20517,0.976978,0
20641,-0.74100006,1.3579501,11.038051,-0.263,0.291,1.294,-0.472,1.056,9.738,0.05555,-0.0561,-0.0081125,0.047944,0.034606,0.204324,0.977115,0
20680,-0.33195,1.11195,11.22,0.151,-0.007,1.434,-0.453,1.093,9.734,0.1832875,-0.0922625,-0.0826375,0.050138,0.034,0.203497,0.977199,0
20720,-0.19305001,0.786,10.743001,0.199,-0.334,0.997,-0.39,1.11,9.735,0.02145,-0.0433125,-0.1753125,0.051522,0.030879,0.200866,0.977775,0
20760,-0.21405001,0.45600003,11.55,0.179,-0.601,1.807,-0.383,1.048,9.742,-0.1021625,-0.0570625,-0.1731125,0.048631,0.029759,0.197266,0.97869,0
20800,0.52395004,0.15195,11.79195,0.843,-0.795,2.026,-0.325,0.948,9.755,-0.172425,-0.0166375,-0.2211,0.044119,0.025691,0.193868,0.979698,0
20840,0.04095,0.006,11.731951,0.332,-0.854,1.92,-0.319,0.84,9.765,-0.0361625,0.089925,-0.27335,0.039066,0.024109,0.188954,0.980912,0
20880,0.22305001,0.06105,10.000951,0.543,-0.748,0.16,-0.311,0.802,9.768,0.15675,0.0323125,-0.21573749,0.037313,0.023207,0.184565,0.981837,0
20920,0.27795002,-0.00495,9.462001,0.562,-0.786,-0.318,-0.291,0.787,9.77,0.0427625,0.0419375,-0.2253625,0.036846,0.021882,0.180423,0.982655,0
20960,0.31095,-0.112950005,9.76395,0.578,-0.842,-0.035,-0.265,0.747,9.774,0.0501875,-0.039049998,-0.1997875,0.035142,0.020049,0.176305,0.983503,0
21000,0.072000004,0.14400001,9.462001,0.303,-0.583,-0.324,-0.235,0.719,9.777,0.064075,0.052525,-0.195525,0.034073,0.018187,0.172647,0.984226,0
21041,-0.44700003,0.59205,8.526,-0.176,-0.148,-1.249,-0.259,0.733,9.775,0.1428625,0.061049998,-0.179575,0.034661,0.019377,0.168983,0.984818,0
21080,-0.21195,0.666,8.380051,0.056,-0.128,-1.355,-0.274,0.768,9.772,0.0235125,-0.031625,-0.121,0.036361,0.020343,0.166197,0.985211,0
21120,-0.34605002,0.70500004,9.09105,-0.068,-0.068,-0.688,-0.271,0.763,9.773,0.0160875,0.004675,-0.1082125,0.036167,0.020068,0.163719,0.985639,0
21160,-0.186,1.0330501,8.63895,0.094,0.228,-1.135,-0.271,0.792,9.77,0.05555,-0.0752125,-0.03355,0.037676,0.020244,0.162364,0.985803,0
21200,0.24405001,1.2430501,8.826,0.445,0.454,-0.943,-0.227,0.825,9.769,-0.023375,0.036575,-0.059125,0.039695,0.018294,0.161762,0.985861,0
21240,-0.09,1.4250001,9.295051,0.146,0.538,-0.475,-0.228,0.878,9.764,0.0598125,-0.0358875,-0.0655875,0.042378,0.018707,0.160436,0.985958,0
21280,0.29205,1.61205,8.35095,0.453,0.638,-1.407,-0.167,0.968,9.757,0.114125,-0.061325,-0.06765,0.047577,0.016298,0.159258,0.985955,0
21320,-0.11400001,1.5670501,9.055051,0.055,0.547,-0.708,-0.164,1.018,9.752,-0.1203125,0.06215,-0.10175,0.049888,0.016561,0.157546,0.986111,0
21360,-0.36105,1.5640501,9.352051,-0.175,0.524,-0.407,-0.178,1.028,9.75,0.0735625,-0.064625,-0.03355,0.050427,0.017193,0.156148,0.986295,0
21401,-0.25800002,1.81095,8.76105,-0.085,0.693,-0.985,-0.16,1.104,9.742,0.0149875,-0.0273625,0.005775,0.055597,0.017232,0.155877,0.98606,0
21440,-0.22905001,1.7010001,9.74505,-0.058,0.55,0.094,-0.159,1.142,9.738,-0.1692625,-0.014575,0.0196625,0.056176,0.017139,0.156013,0.986007,0
21480,-0.53505003,1.60695,11.028001,-0.357,0.512,1.262,-0.173,1.108,9.742,-0.0191125,0.020624999,0.10065,0.054509,0.017648,0.157017,0.985932,0
21520,-0.94695,1.7170501,9.87405,-0.747,0.555,0.125,-0.192,1.161,9.735,0.1098625,0.0067375,0.16665,0.05708,0.019201,0.159535,0.985353,0
21561,-0.43695003,1.4830501,10.939951,-0.215,0.283,1.205,-0.219,1.185,9.732,-0.11385,4.13E-04,0.326425,0.057868,0.021025,0.164222,0.984499,0
21600,0.33795002,1.07805,11.257951,0.473,-0.096,1.485,-0.187,1.145,9.737,-0.0595375,0.0653125,0.191125,0.056018,0.019411,0.169856,0.983683,0
21640,-0.58605003,0.75495005,11.29905,-0.353,-0.354,1.602,-0.217,1.092,9.743,-0.140525,0.0941875,0.1390125,0.052905,0.020617,0.172385,0.983391,0
21680,-0.26505002,0.67395,11.548051,-0.012,-0.338,1.784,-0.247,1.003,9.752,-0.1533125,0.0771375,0.2283875,0.048199,0.021486,0.176291,0.982922,0
21720,-0.40605003,0.32205,11.248051,-0.129,-0.623,1.45,-0.292,0.923,9.758,-0.0840125,0.208175,0.2156,0.04365,0.023233,0.180704,0.982293,0
21761,-0.87495005,0.26895002,9.982051,-0.49,-0.593,0.128,-0.367,0.879,9.76,0.130075,0.06325,0.243375,0.04065,0.026734,0.185028,0.981527,0
21800,-0.99495006,0.19905001,9.003,-0.592,-0.718,-0.728,-0.401,0.882,9.758,-0.005225,-0.00605,0.20185,0.04033,0.028662,0.189104,0.980709,0
21840,-0.80805004,-0.19905001,10.221001,-0.362,-0.982,0.45,-0.441,0.791,9.764,-0.1203125,0.0994125,0.16555,0.035303,0.029898,0.192604,0.980185,0
21880,-1.11195,-0.03705,9.30405,-0.596,-0.759,-0.463,-0.507,0.731,9.766,0.0672375,0.121825,0.13145,0.031572,0.032695,0.195399,0.979669,0
21920,-1.3110001,0.22800002,9.04605,-0.713,-0.489,-0.719,-0.593,0.707,9.763,-0.0776875,0.104775,0.13145,0.028465,0.037898,0.197844,0.979086,0
21961,-1.08105,0.42495003,9.76395,-0.382,-0.218,-0.008,-0.693,0.64,9.761,-0.070125,0.14533749,0.18053749,0.024846,0.041358,0.200798,0.978443,0
22000,-0.92100006,0.70695,9.213,-0.125,0.075,-0.589,-0.759,0.646,9.755,0.0906125,0.1144,0.207075,0.024444,0.04483,0.204565,0.97752,0
22040,-0.57600003,0.966,8.61705,0.21,0.253,-1.142,-0.783,0.699,9.75,-9.63E-04,0.0686125,0.1837,0.026596,0.046546,0.208141,0.976628,0
22080,-0.58095,1.06605,9.36705,0.24,0.35,-0.389,-0.812,0.712,9.746,-0.0105875,0.13255,0.1857625,0.026737,0.048263,0.211727,0.97577,0
22121,-0.507,1.2720001,8.44995,0.307,0.469,-1.295,-0.811,0.796,9.74,0.148225,-0.0188375,0.1219625,0.031064,0.049239,0.215067,0.974862,0
22160,-0.75795,1.2390001,8.47605,0.048,0.356,-1.263,-0.797,0.869,9.735,-0.0158125,0.019524999,0.0356125,0.034491,0.049399,0.216331,0.974459,0
22200,-0.80805004,1.2360001,9.370951,0.01,0.343,-0.362,-0.813,0.882,9.732,0.0055,0.005775,-0.012375,0.035027,0.050351,0.215931,0.97448,0
22240,-1.07895,1.30095,9.012,-0.272,0.367,-0.726,-0.803,0.926,9.729,0.0735625,-0.062425,-0.0633875,0.037456,0.050255,0.215053,0.974588,0
22280,-1.0500001,1.4110501,9.177,-0.23,0.437,-0.558,-0.824,0.978,9.722,-0.0319,-0.039049998,-0.0240625,0.039791,0.051887,0.214127,0.974614,0
22320,-0.98295003,1.3249501,9.85995,-0.16,0.32,0.11,-0.808,0.987,9.723,1.38E-04,-0.0848375,-0.086899996,0.040479,0.05105,0.213141,0.974846,0
22360,-1.16295,1.3920001,10.00605,-0.36,0.381,0.275,-0.797,1.008,9.722,0.028875,-0.031625,-0.0655875,0.041737,0.0507,0.211513,0.975166,0
22400,-1.5460501,1.81305,9.498,-0.704,0.748,-0.219,-0.834,1.064,9.712,0.060775,0.0121,-0.07095,0.044182,0.053173,0.210288,0.975191,0
22441,-1.7920501,1.44,10.795951,-0.899,0.349,1.08,-0.884,1.08,9.706,-0.138325,0.053625,-0.0496375,0.044525,0.055792,0.208808,0.975348,0
22480,-1.30095,1.09695,11.86095,-0.348,0.05,2.171,-0.945,1.038,9.705,-0.0424875,0.052525,-0.0240625,0.04182,0.058354,0.20844,0.975396,0
22520,-0.98505,0.56295,12.453001,-0.014,-0.453,2.722,-0.928,0.987,9.712,-0.140525,-0.1593625,-0.00275,0.039349,0.056741,0.208074,0.975672,0
22560,0.38505003,0.09195001,12.951,1.193,-0.823,3.208,-0.812,0.905,9.73,-0.1203125,-0.2542375,0.0526625,0.036545,0.050253,0.208634,0.976017,0
22601,0.59400004,0.135,12.160951,1.323,-0.755,2.409,-0.737,0.878,9.739,0.1269125,-0.036849998,0.0484,0.035936,0.046243,0.209664,0.976017,0
22640,0.52005005,0.36195,9.87705,1.113,-0.582,0.035,-0.609,0.922,9.744,0.341,-0.0848375,-0.042075,0.039547,0.040341,0.209573,0.976159,0
22680,-0.10005,0.42195,8.347051,0.502,-0.6,-1.399,-0.597,1.022,9.734,0.1780625,0.004675,-0.1390125,0.044752,0.040713,0.207515,0.976358,0
22720,0.50295,0.22305001,9.225,1.06,-0.814,-0.514,-0.57,1.032,9.735,-0.066,-0.1700875,-0.1337875,0.045648,0.039327,0.204942,0.976917,0
22760,0.16995001,0.231,9.642,0.593,-0.736,-0.121,-0.43,0.954,9.75,0.0075625,-0.14973749,-0.4021875,0.043327,0.031305,0.200255,0.978284,0
22800,-0.507,0.59205,9.156,-0.124,-0.307,-0.548,-0.378,0.92,9.755,-0.0094875,-0.2105125,-0.2893,0.042381,0.028061,0.192895,0.979901,0
22840,0.31395,0.92295,8.9740505,0.551,-0.008,-0.798,-0.238,0.92,9.76,0.069299996,-0.467225,-0.3905,0.044044,0.020339,0.186572,0.981242,0
22880,-0.47100002,0.85995007,8.6320505,-0.359,-0.078,-1.139,-0.103,0.936,9.761,0.0490875,-0.2127125,-0.3617625,0.046113,0.013718,0.178259,0.982806,0
22920,0.00495,0.80805004,8.019,0.187,-0.127,-1.751,-0.187,0.931,9.76,-0.171325,0.309375,-0.129525,0.045163,0.017679,0.173886,0.98357,0
22961,0.34695002,0.87705004,10.03005,0.485,0.037,0.254,-0.145,0.834,9.77,-0.2363625,-0.265925,-0.37235,0.040497,0.01425,0.169347,0.98462,0
23000,-0.53805,0.846,8.245951,-0.368,0.001,-1.528,-0.162,0.843,9.768,0.2707375,0.3295875,-0.20405,0.041301,0.015634,0.163,0.985637,0
23040,0.71295005,1.248,8.586,0.893,0.295,-1.178,-0.183,0.946,9.759,0.1013375,-0.10395,-0.1582625,0.046159,0.017028,0.160903,0.985743,0
23080,-0.72900003,1.49205,7.8630004,-0.561,0.466,-1.893,-0.16,1.017,9.752,0.0374,-0.030524999,-0.2424125,0.050046,0.016229,0.156187,0.986325,0
23120,-0.042000003,1.3750501,8.49495,0.228,0.379,-1.268,-0.269,0.982,9.753,-0.4697,0.43821248,0.0281875,0.046938,0.02166,0.154263,0.986676,0
23161,-0.36495003,1.23405,11.217001,-0.021,0.431,1.389,-0.359,0.821,9.765,-0.3663,-0.031625,-0.0559625,0.038571,0.024533,0.154441,0.986943,0
23200,-0.897,1.14495,9.616051,-0.562,0.332,-0.151,-0.322,0.811,9.767,0.12045,-0.0837375,-0.0655875,0.038543,0.022559,0.152963,0.987222,0
23240,-0.46305,1.2,9.57495,-0.008,0.385,-0.107,-0.372,0.826,9.764,-0.241725,0.16555,0.2987875,0.038724,0.025366,0.155552,0.986742,0
23280,-0.20700002,1.641,10.11795,0.183,0.773,0.345,-0.388,0.86,9.761,0.331375,-0.17435,0.1848,0.040531,0.026487,0.160875,0.985786,0
23320,-0.030000001,0.99000007,9.8550005,0.342,0.009,0.096,-0.37,0.971,9.751,-0.1511125,0.3689125,0.2146375,0.045793,0.026806,0.164591,0.984933,0
