Timestamp,Milliseconds,linear-x,linear-y,linear-z,gravity-x,gravity-y,gravity-z,rotation-x,rotation-y,rotation-z,rotation-w,acc-x,acc-y,acc-z,gyr-x,gyr-y,gyr-z
2023/4/28 15:25,1,-0.4840028,-0.09036866,0.058829308,-0.008167888,0.4853483,9.794629,0.003216069,-0.024547188,-0.9932673,0.11316857,-0.477005,0.48490906,9.829239,-0.001586914,-0.1131897,0.042556763
2023/4/28 15:25,42,-0.42590806,0.08527535,0.047232628,0.023446528,0.5187113,9.792894,0.001951446,-0.026807085,-0.99285036,0.11630032,-0.39678955,0.57948303,9.744843,0.16140747,-0.00239563,-0.049057007
2023/4/28 15:25,81,-0.16880566,-0.07174945,-0.5100937,0.025503866,0.5481966,9.791283,0.002142963,-0.027824115,-0.99261695,0.118037105,-0.08554077,0.47592163,9.45694,-0.02609253,0.057250977,0.0766449
2023/4/28 15:25,122,0.332088,-0.07837379,0.22021866,0.041582298,0.52496517,9.792501,0.001141263,-0.02683504,-0.99226403,0.121204995,0.38371277,0.46276855,10.158447,-0.064437866,-0.085494995,0.09580994
2023/4/28 15:25,162,0.097566836,0.16672939,0.30929852,0.038193874,0.5256091,9.79248,0.001376565,-0.026843702,-0.9919912,0.1234139,0.116760254,0.7249298,10.193756,0.049545288,0.062576294,0.020187378
2023/4/28 15:25,202,0.16651651,0.12756741,-0.26427174,0.054950412,0.5416759,9.791525,6.65E-04,-0.027762266,-0.99180686,0.124691576,0.20414734,0.6674652,9.61615,-0.019699097,-0.116378784,0.002075195
2023/4/28 15:25,241,0.63115335,0.39085764,1.1673279,0.050652362,0.529528,9.792212,8.07E-04,-0.027119638,-0.9918185,0.12473977,0.82844543,1.0403595,11.246002,-0.044189453,0.4162445,-0.026687622
2023/4/28 15:25,281,0.024831258,-0.15184581,-0.091415405,-0.015017379,0.58435225,9.789213,0.004426915,-0.029486302,-0.9919635,0.122961,-0.03286743,0.42385864,9.79512,0.21359253,0.07003784,-0.068237305
2023/4/28 15:25,321,-0.59800875,-0.49671537,-0.31957722,-0.03774574,0.6519509,9.784883,0.005940714,-0.03278044,-0.9920831,0.12108394,-0.63023376,0.15930176,9.552704,0.15820312,0.043411255,-0.01071167
2023/4/28 15:25,362,-0.14698008,-0.2700866,-0.44250488,-0.056413203,0.6858904,9.782473,0.007122437,-0.034380395,-0.99192935,0.12183344,-0.12205505,0.44540405,9.438385,0.017593384,-0.008789063,0.09687805
2023/4/28 15:25,401,0.3698113,0.2682929,0.47535896,-0.09361587,0.6719364,9.7831545,0.009022652,-0.03341412,-0.9915653,0.124901325,0.09341431,1.0571289,10.132111,-0.027145386,0.2585907,0.09687805
2023/4/28 15:25,441,0.3404296,0.16040182,-0.024558067,-0.119571544,0.7003694,9.780878,0.010692876,-0.034916565,-0.99100626,0.12873667,0.19636536,0.9290314,9.927994,0.103881836,0.011444092,0.035095215
2023/4/28 15:25,481,0.06533455,-0.08304292,-0.5114708,-0.11805856,0.7344238,9.778398,0.010933491,-0.036404904,-0.9907199,0.13049592,-0.12145996,0.59324646,9.345612,0.028244019,0.015716553,-0.033081055
2023/4/28 15:25,522,-0.1740574,-0.21923411,-0.16692448,-0.12875412,0.7057852,9.780372,0.011279045,-0.034822337,-0.99053127,0.13231774,-0.22859192,0.5196228,9.901657,-0.1262207,-0.00453186,0.029769897
2023/4/28 15:25,561,0.14350504,0.03216219,0.18703556,-0.12348394,0.6801515,9.782256,0.010909153,-0.033537216,-0.9902994,0.13439992,0.020401001,0.7177429,10.075241,-0.013305664,0.005065918,0.009521484
2023/4/28 15:25,602,-0.048871264,-0.005262256,0.057753563,-0.13092896,0.67277753,9.782669,0.011287919,-0.03309494,-0.990093,0.13598968,-0.19148254,0.6542969,9.99025,-0.03353882,0.03276062,-0.021362305
2023/4/28 15:25,641,0.168992,0.021147728,0.28914165,-0.13799886,0.66810715,9.782891,0.011668348,-0.032789897,-0.98986673,0.13766818,0.015609741,0.6782379,10.193756,0.022918701,0.010391235,-0.021362305
2023/4/28 15:25,681,-0.26652086,-0.25983673,-0.15006351,-0.14826176,0.6869464,9.781438,0.012361622,-0.033655632,-0.9896581,0.13889308,-0.43629456,0.40530396,9.711929,0.052749634,7.93E-04,-0.018173218
2023/4/28 15:25,721,-0.06510909,-0.17525274,-0.11535549,-0.14091386,0.6852193,9.781667,0.012051003,-0.033594206,-0.98936015,0.14104143,-0.18011475,0.51364136,9.829239,-0.051651,-0.01625061,0.05000305
2023/4/28 15:25,762,0.14173423,-0.06468129,0.023109436,-0.13526845,0.66496545,9.783145,0.011778323,-0.032660645,-0.98903567,0.1435375,0.07008362,0.6363373,9.931595,-0.03567505,-0.01411438,0.058532715
2023/4/28 15:25,801,0.15733933,0.06887227,0.099829674,-0.12531868,0.65244085,9.78412,0.011178102,-0.03199641,-0.98874384,0.145729,-0.029281616,0.7267151,10.099182,-0.023956299,0.006118774,-0.007522583
2023/4/28 15:25,841,-0.16258596,-0.004743338,0.05337715,-0.13001502,0.6587927,9.783632,0.011499498,-0.0322693,-0.9885639,0.14685994,-0.29682922,0.66148376,9.974091,0.050613403,-0.003463745,-0.017105103
2023/4/28 15:25,881,0.1903139,0.12270993,-0.17733288,-0.122113414,0.67018044,9.782961,0.011239484,-0.032885626,-0.98830837,0.14845465,0.07067871,0.80033875,9.727478,5.49E-04,-0.008789063,0.003143311
2023/4/28 15:25,922,-0.1114392,0.001390874,0.09721851,-0.12913205,0.66645,9.783127,0.011586206,-0.032636665,-0.98821706,0.14908952,-0.26391602,0.6758423,9.995041,-0.006912231,0.024230957,-0.050125122
2023/4/28 15:25,961,-0.097481176,0.053251743,0.108273506,-0.14082643,0.6673624,9.782903,0.012217071,-0.03258118,-0.9880557,0.15011725,-0.26631165,0.74108887,10.033936,0.013336182,-0.010925293,-0.007522583
2023/4/28 15:25,1002,-0.18747345,-0.08207321,-0.013165474,-0.13995297,0.6765826,9.782282,0.012287608,-0.033037204,-0.9878405,0.15142263,-0.3728485,0.58966064,9.873535,0.043151855,-0.03541565,0.021240234
2023/4/28 15:25,1041,-0.023404911,0.004009664,-0.26444244,-0.13723105,0.6828282,9.781887,0.012252187,-0.033353955,-0.9875867,0.15300319,-0.16575623,0.68063354,9.637695,-0.017562866,-0.03968811,0.054275513
2023/4/28 15:25,1081,0.10107421,-0.02364719,0.23053837,-0.11469461,0.66983014,9.783076,0.010855698,-0.032852665,-0.9873727,0.15458994,0.04673767,0.68122864,10.153061,-0.015426636,-0.052459717,0.07876587
2023/4/28 15:25,1121,0.21357158,0.10576701,0.19604778,-0.10392091,0.678914,9.78257,0.010627297,-0.0333892,-0.98721015,0.15552586,0.020996094,0.77760315,10.005814,0.047424316,0.02104187,0.01272583
2023/4/28 15:25,1162,-0.009393171,-0.030790806,0.10986519,-0.104711354,0.70913416,9.7804165,0.0109184,-0.03490445,-0.98710805,0.15582103,-0.089141846,0.75305176,10.027359,0.09535217,-0.01625061,0.004196167
2023/4/28 15:25,1201,0.008618049,-0.075641334,-0.45907974,-0.08976471,0.7418129,9.778141,0.010440552,-0.03666814,-0.9869876,0.15621105,-0.06159973,0.6758423,9.403671,0.042099,-0.022644043,0.021240234
2023/4/28 15:25,1241,-0.035214856,0.040463448,-0.1320591,-0.0964622,0.7399853,9.778216,0.010778083,-0.03651824,-0.986927,0.15660603,-0.12086487,0.8045349,9.694565,-0.030349731,0.027435303,-0.013916016
2023/4/28 15:25,1282,-0.15652783,-0.004868507,0.12303066,-0.092801295,0.7309018,9.7789345,0.010544635,-0.03608215,-0.98684126,0.15726148,-0.2758789,0.75605774,10.021378,-0.004776001,-0.040740967,0.052139282
2023/4/28 15:25,1321,-0.00956811,0.074490905,0.006690979,-0.08719042,0.73496914,9.778681,0.010334009,-0.0363212,-0.98666394,0.15832958,-0.0765686,0.81710815,9.905853,0.006942749,0.010391235,0.03616333
2023/4/28 15:25,1361,0.15390962,0.08516157,0.43245316,-0.077791214,0.73461413,9.778787,0.009899444,-0.036367837,-0.9864838,0.15946488,0.112579346,0.82728577,10.353561,0.014389038,-0.06524658,0.042556763
2023/4/28 15:25,1401,-0.13845456,0.01388979,-0.09383392,-0.042910248,0.75844955,9.777184,0.008378333,-0.0378448,-0.9862685,0.16053654,-0.12684631,0.74227905,9.734665,0.076187134,-0.073776245,0.05532837
2023/4/28 15:25,1442,0.06416071,-0.14018977,-0.35636425,-0.031532735,0.777118,9.77576,0.007963838,-0.038840916,-0.9860388,0.1617263,0.040145874,0.6531067,9.517395,-0.010101318,-0.007720947,0.037231445
2023/4/28 15:25,1481,0.08078766,-0.22398639,0.10173035,-0.021221677,0.76169103,9.777002,0.007394237,-0.0381703,-0.98591876,0.1626425,0.06289673,0.5591278,9.982468,-0.02609253,-0.006652832,0.026565552
2023/4/28 15:25,1521,0.16608495,0.0401541,-0.1631689,-0.031583615,0.75272053,9.777668,0.00785611,-0.0376289,-0.9858713,0.1630342,0.119155884,0.8039398,9.7604065,-0.03567505,0.04020691,-0.004318237
2023/4/28 15:25,1562,0.14491701,0.029874444,0.03843689,-0.04187339,0.7362549,9.778883,0.008227389,-0.03671533,-0.9859435,0.1627874,0.10359192,0.79196167,9.967499,-0.03779602,0.023162842,-0.021362305
2023/4/28 15:25,1601,0.096832536,0.062868774,-0.09252453,-0.048920527,0.72175235,9.779932,0.008429916,-0.035933122,-0.98611206,0.16192827,0.03416443,0.79615784,9.785538,-0.054840088,0.002929688,-0.040542603
2023/4/28 15:25,1641,0.11931428,0.019735217,-0.07931614,-0.035055295,0.70734996,9.781044,0.007570444,-0.035330694,-0.9863324,0.16075687,0.07307434,0.7291107,9.829239,-0.04206848,-0.008789063,-0.051193237
2023/4/28 15:25,1682,-0.124019496,-0.031288564,0.10584736,-0.036503322,0.69008845,9.782271,0.007474006,-0.0344545,-0.98649114,0.15997589,-0.17652893,0.6495056,9.988449,-0.028213501,-0.007720947,-0.019241333
2023/4/28 15:25,1721,0.050527554,0.041718423,-0.0504694,-0.036000483,0.6822719,9.782823,0.007376581,-0.034066252,-0.9865433,0.15974176,-0.016708374,0.7327118,9.866943,-0.023956299,-0.01625061,-0.017105103
2023/4/28 15:25,1761,0.0691712,0.037706733,0.024682045,-0.03253134,0.67328465,9.783456,0.007123028,-0.03364255,-0.9865851,0.15958469,0.03236389,0.7476654,9.909439,-0.031417847,-0.007720947,-0.007522583
2023/4/28 15:25,1801,-0.006469665,0.02292186,0.18397236,-0.02105268,0.6717367,9.783594,0.006511906,-0.033661935,-0.98668516,0.15898708,-0.020309448,0.6932068,10.118332,0.017593384,-0.00239563,-0.018173218
2023/4/28 15:25,1842,0.036528096,-0.00185293,-0.20658588,-0.023019316,0.6871637,9.782518,0.00681334,-0.034537114,-0.9867623,0.15830638,-0.031082153,0.7111664,9.591019,0.04421997,0.031692505,-0.02243042
2023/4/28 15:25,1881,-0.038101207,-0.08020115,0.0712347,-0.038928278,0.68575746,9.782567,0.007471766,-0.034235857,-0.98691094,0.15741326,-0.06878662,0.61538696,9.977081,-0.028213501,0.033813477,-0.02456665
2023/4/28 15:25,1921,-0.14815992,-0.022725701,-0.03909874,-0.056125563,0.6799762,9.7828865,0.008295174,-0.033805266,-0.98690253,0.1575175,-0.2034607,0.6752472,9.845398,0.012268066,0.025299072,0.015914917
2023/4/28 15:25,1962,0.001199581,0.031161964,0.22814369,-0.06259875,0.68328255,9.782617,0.008615839,-0.033928186,-0.98704433,0.15658271,-0.06399536,0.72732544,10.0967865,0.03463745,-0.00453186,0.02230835
2023/4/28 15:25,2001,0.044761047,0.004641414,-0.19874287,-0.06543454,0.7030352,9.7811985,0.0089284,-0.034899127,-0.98695713,0.15690123,-0.001144409,0.7285156,9.698761,0.038894653,0.027435303,0.019119263
2023/4/28 15:25,2041,0.12552346,-0.020911217,-0.20572567,-0.066151164,0.6986464,9.781508,0.008938625,-0.03466957,-0.9869226,0.15716839,0.05570984,0.6824341,9.653259,-0.06123352,0.015716553,0.009521484
2023/4/28 15:25,2081,-0.04425869,-0.06513834,0.017718315,-0.07581457,0.6723152,9.783283,0.009218328,-0.033262614,-0.986946,0.15730947,-0.09213257,0.6483154,9.843597,-0.05378723,0.059387207,-0.005386353
2023/4/28 15:25,2122,-0.055710517,-0.018256307,0.24386406,-0.097019106,0.6455271,9.7849,0.010081057,-0.031738278,-0.9869373,0.15762585,-0.16934204,0.63394165,10.127319,-0.048461914,0.029556274,0.003143311
2023/4/28 15:25,2161,0.06953046,0.002695203,0.18005943,-0.105284624,0.64034176,9.785156,0.010473314,-0.031404465,-0.98685485,0.15818194,-0.033477783,0.6716614,10.099777,0.017593384,0.002929688,0.02230835
2023/4/28 15:25,2201,0.067359775,-0.023743391,-0.37481117,-0.09923617,0.65149796,9.784482,0.010243937,-0.032062057,-0.98675627,0.15867932,-0.05381775,0.6070099,9.529358,0.02078247,-0.006652832,0.02230835
2023/4/28 15:25,2242,0.24198931,-0.017446637,0.021805763,-0.105649434,0.64302933,9.784976,0.010628522,-0.031373482,-0.98671985,0.1590177,0.13352966,0.6159973,9.938171,-0.055908203,0.05192566,-0.008575439
2023/4/28 15:25,2281,-0.014402777,-0.01720798,-0.025030136,-0.12093569,0.62014586,9.786276,0.011127723,-0.030249145,-0.9867287,0.15914635,-0.15318298,0.602829,9.890289,-0.032470703,0.015716553,0.002075195
2023/4/28 15:25,2321,-0.04514101,0.004392445,-0.045788765,-0.13289651,0.6039688,9.787131,0.011601985,-0.02933525,-0.98673105,0.15926923,-0.20227051,0.6177826,9.868744,-0.054840088,0.033813477,-0.007522583
2023/4/28 15:25,2361,0.017989919,-0.019254506,0.31940365,-0.13929881,0.57340544,9.78888,0.011679336,-0.027741179,-0.98675275,0.15941474,-0.13043213,0.59025574,10.19017,-0.023956299,0.00932312,-0.003250122
2023/4/28 15:25,2402,-0.014484897,0.059919,0.09474373,-0.13964108,0.5776028,9.78863,0.0117395,-0.027946277,-0.98669666,0.15972118,-0.145401,0.6537018,9.942963,0.031433105,-0.015182495,0.014846802
2023/4/28 15:25,2441,0.07033859,0.06779426,-0.11372566,-0.12953489,0.5892473,9.7880745,0.011333282,-0.028612396,-0.9866403,0.15998073,-0.07417297,0.67045593,9.804092,-0.015426636,-0.022644043,0.002075195
2023/4/28 15:25,2482,0.081464544,-0.013793707,0.043393135,-0.1236482,0.584002,9.7884655,0.01103414,-0.028413162,-0.986595,0.16031617,-0.05680847,0.595047,9.897476,0.006942749,0.023162842,0.002075195
2023/4/28 15:25,2522,-0.05282435,-0.048523366,0.23410797,-0.13129191,0.58330953,9.788406,0.011378603,-0.028296651,-0.986618,0.16017123,-0.17353821,0.5447693,10.218292,0.003738403,-0.00453186,-0.017105103
2023/4/28 15:25,2561,0.08208114,0.044360697,-0.19446182,-0.12615173,0.59316003,9.787882,0.011137302,-0.028981088,-0.9865946,0.16020949,-0.059814453,0.62197876,9.747238,0.043151855,-0.020507812,0.00100708
2023/4/28 15:25,2601,0.019115813,-0.01220423,-0.047971725,-0.11618652,0.60390735,9.787348,0.010787781,-0.02945763,-0.98658544,0.1602031,-0.07775879,0.5992279,9.857971,-0.007980347,7.93E-04,-0.009643555
2023/4/28 15:25,2642,-0.006202355,-0.0158239,0.11492729,-0.11952672,0.6034614,9.787335,0.010958554,-0.029405553,-0.98655117,0.16041212,-0.13821411,0.58665466,9.99324,0.010131836,0.008255005,-0.014968872
2023/4/28 15:25,2681,-0.13714895,0.003537059,0.006939888,-0.1314282,0.613539,9.786556,0.011660857,-0.02980817,-0.9864219,0.16108176,-0.2788849,0.6177826,9.908249,0.030380249,0.001861572,-0.003250122
2023/4/28 15:25,2722,-0.027268067,0.022582352,0.031638145,-0.1314603,0.62577385,9.785782,0.011768743,-0.030422362,-0.9863735,0.16125531,-0.08973694,0.64053345,9.89209,0.028244019,-0.017318726,0.005264282
2023/4/28 15:25,2761,0.04969327,-0.015859902,-0.187891,-0.12686522,0.63694894,9.785121,0.011634983,-0.031021286,-0.9863288,0.16142443,-0.055618286,0.62976074,9.698761,0.018661499,-2.75E-04,0.008468628
2023/4/28 15:25,2801,0.07807085,0.027671814,-0.2586813,-0.11959302,0.63423586,9.785389,0.011205074,-0.030857898,-0.9863499,0.16135706,-0.050231934,0.6776428,9.664642,-0.04206848,-2.75E-04,-0.002197266
2023/4/28 15:25,2842,0.004055768,-0.007901251,0.1332264,-0.11953018,0.61239344,9.78678,0.01106276,-0.029844293,-0.9863714,0.16142607,-0.15318298,0.6255646,10.095596,-0.052719116,0.006118774,-0.004318237
2023/4/28 15:25,2881,0.060837634,0.063764036,0.34127235,-0.12188253,0.6113155,9.7868185,0.011173877,-0.029770024,-0.98636377,0.16147879,-0.08973694,0.686615,10.213501,0.038894653,0.005065918,-0.02029419
2023/4/28 15:25,2922,-0.027241014,-0.01648581,-0.15284538,-0.12223798,0.63938195,9.785022,0.011422294,-0.031181905,-0.98632526,0.16143002,-0.14659119,0.634552,9.801712,0.078308105,-0.009857178,-0.006454468
2023/4/28 15:25,2961,0.036506973,0.011183739,-0.19921398,-0.120271295,0.654495,9.784046,0.011414587,-0.031969417,-0.98628044,0.16155063,-0.08076477,0.67404175,9.690979,-0.003707886,-0.011993408,-0.006454468
2023/4/28 15:25,3001,-0.027586736,-0.040594697,0.023545265,-0.11209939,0.647103,9.784635,0.01098371,-0.03165166,-0.9862742,0.16168098,-0.15019226,0.6369324,9.89328,-0.009048462,-0.022644043,0.003143311
2023/4/28 15:25,3042,0.058868982,0.0384295,0.08916187,-0.10082012,0.6427225,9.785047,0.010389336,-0.031520683,-0.98623466,0.1619866,-0.038864136,0.6932068,9.971695,-0.012237549,-0.031158447,0.006332398
2023/4/28 15:25,3081,-0.067619234,0.026731193,-0.08121014,-0.09526722,0.64309865,9.785077,0.01011918,-0.0315835,-0.98620325,0.16218254,-0.17951965,0.6758423,9.825653,-0.001586914,-0.00453186,-6.10E-05
2023/4/28 15:25,3121,0.013414197,0.008919239,0.086535454,-0.08984674,0.6424534,9.7851715,0.009846997,-0.03159393,-0.98617464,0.16237141,-0.08734131,0.65548706,9.9711,0.018661499,-0.02583313,0.008468628
2023/4/28 15:25,3162,0.07944012,0.027363777,0.09901333,-0.074642554,0.6517503,9.784684,0.009162423,-0.032187294,-0.9861443,0.16247903,0.02519226,0.6542969,10.079437,0.026107788,0.010391235,-0.011779785
2023/4/28 15:25,3201,0.14891638,0.16721916,-0.8461752,-0.062512554,0.6594254,9.784255,0.008635432,-0.032669343,-0.9860347,0.16307591,0.2155304,0.86499023,9.102005,-0.07722473,-0.03968811,0.040420532
2023/4/28 15:25,3241,-0.52061206,-0.092969954,0.52142334,-0.08837865,0.62570834,9.786269,0.009643543,-0.030759385,-0.9861521,0.1626802,-0.6463928,0.4681549,10.440353,-0.022888184,0.08708191,-0.037338257
2023/4/28 15:25,3282,-0.14875785,0.1250444,-0.6712656,-0.0808492,0.6453889,9.785056,0.009438011,-0.031810563,-0.98607177,0.16297713,-0.14181519,0.81411743,9.196564,0.028244019,-0.104660034,0.07557678
2023/4/28 15:25,3321,0.12858908,-0.054189622,0.050953865,-0.0659744,0.61949056,9.786842,0.008465299,-0.030631684,-0.9861604,0.16271989,0.062301636,0.5669098,9.917221,-0.09320068,0.01676941,-0.018173218
2023/4/28 15:25,3361,-0.10136509,0.004923642,0.27571583,-0.0776923,0.60491204,9.787667,0.008927666,-0.029801834,-0.9862147,0.16251986,-0.19866943,0.6070099,10.121338,0.027175903,0.023162842,0.015914917
2023/4/28 15:25,3401,0.0676701,0.03833437,-0.2953272,-0.07112763,0.6095604,9.787429,0.008625651,-0.030093353,-0.9862638,0.16218422,0.003631592,0.65190125,9.622147,-0.03353882,-0.0236969,0.035095215
2023/4/28 15:25,3441,0.120696455,0.038847744,0.2027092,-0.07532994,0.59392405,9.788359,0.008716169,-0.029268257,-0.9862393,0.16247879,-0.008331299,0.61479187,10.075241,-0.029281616,0.05192566,-0.004318237
2023/4/28 15:25,3481,-0.13604653,-0.13226658,0.24006844,-0.09756924,0.59339225,9.788195,0.009833802,-0.029056303,-0.98622024,0.1625688,-0.2543335,0.45318604,10.044113,0.033569336,0.029556274,0.011657715
2023/4/28 15:25,3522,0.12962323,-0.040008545,0.026621819,-0.096892595,0.61013895,9.787172,0.009943972,-0.029903896,-0.9861672,0.16273037,0.09341431,0.5764923,9.926804,0.05593872,0.011444092,0.011657715
2023/4/28 15:25,3561,-0.08013546,-0.08977181,-0.18525219,-0.11205487,0.6281174,9.785872,0.010967335,-0.030710239,-0.98613554,0.16270623,-0.19268799,0.5513458,9.647873,0.016525269,0.039154053,0.003143311
2023/4/28 15:25,3601,-0.09957826,-0.089657545,-0.2632723,-0.12304139,0.62720126,9.785799,0.011418106,-0.030447166,-0.98608977,0.1630018,-0.20704651,0.5854645,9.644882,-0.03567505,0.008255005,0.025512695
2023/4/28 15:25,3642,0.13915758,0.049794137,0.1004715,-0.12058644,0.6008245,9.787484,0.011078364,-0.029230768,-0.98606735,0.16338317,-0.004150391,0.6638794,9.99025,-0.071884155,0.01676941,0.011657715
2023/4/28 15:25,3681,-0.026083276,-0.042663157,0.095970154,-0.13262524,0.57644147,9.788795,0.011486447,-0.027899941,-0.9860655,0.16359837,-0.17114258,0.528595,9.9734955,-0.06762695,0.033813477,-0.00112915
2023/4/28 15:25,3721,0.043090865,-0.033661306,0.21191978,-0.14514694,0.5591183,9.789622,0.011974519,-0.026921844,-0.986069,0.16370602,-0.11009216,0.5375824,10.1315,0.011199951,0.03276062,0.006332398
2023/4/28 15:25,3761,0.094988555,-0.013783455,-0.15128326,-0.15181385,0.5647801,9.789196,0.012351904,-0.027153857,-0.9860916,0.1635037,-0.031082153,0.54415894,9.712524,-0.001586914,0.043411255,-0.016036987
2023/4/28 15:25,3802,-0.10952672,-0.12897015,-0.061000824,-0.16598892,0.55351263,9.78961,0.012963909,-0.026471812,-0.98614615,0.16323888,-0.28904724,0.42684937,9.808289,-0.019699097,0.026367188,-0.007522583
2023/4/28 15:25,3841,-0.014032647,0.05723399,-0.07612705,-0.1788904,0.5358413,9.790365,0.013509771,-0.02528797,-0.9861082,0.16361131,-0.21662903,0.56570435,9.865753,-0.071884155,0.02104187,-0.003250122
2023/4/28 15:25,3881,-0.025370061,-0.02662921,0.31071377,-0.1835004,0.50553846,9.791891,0.013455387,-0.02376579,-0.9861768,0.16343032,-0.2363739,0.4400177,10.215897,-0.043136597,7.93E-04,-0.01071167
2023/4/28 15:25,3922,0.011651143,-0.005978644,0.2073698,-0.18311429,0.49793032,9.79229,0.013347802,-0.02358543,-0.98617685,0.1634649,-0.16694641,0.50405884,10.102783,0.022918701,-0.007720947,-0.004318237
2023/4/28 15:25,3961,-0.027689323,-0.006637573,-0.04717827,-0.17494954,0.5137791,9.791619,0.01309289,-0.024391191,-0.98613167,0.1636398,-0.20585632,0.5202179,9.860962,0.042099,-0.011993408,-0.00112915
2023/4/28 15:25,4001,-0.001984403,-0.005930007,-0.23560905,-0.17401783,0.5207077,9.791269,0.013110027,-0.024744619,-0.98608285,0.16387933,-0.18251038,0.52201843,9.667038,-0.018630981,0.001861572,-6.10E-05
2023/4/28 15:25,4041,-0.032701537,-0.050721943,0.041786194,-0.1766098,0.49993622,9.792306,0.013073416,-0.023673315,-0.9860603,0.1641757,-0.19029236,0.44540405,9.961517,-0.0473938,-0.00239563,-0.004318237
2023/4/28 15:25,4082,0.02233927,-0.050094426,0.27511024,-0.17572954,0.48530108,9.793058,0.012910226,-0.022941709,-0.986051,0.16434826,-0.15916443,0.43821716,10.194351,0.006942749,0.001861572,-0.007522583
2023/4/28 15:25,4121,-0.030405194,0.037186027,-0.002667427,-0.17349568,0.49606675,9.792559,0.01289428,-0.023499062,-0.9859965,0.16459793,-0.2028656,0.5417633,9.921417,0.033569336,-0.022644043,0.003143311
2023/4/28 15:25,4161,0.00119412,0.01915592,-0.04515171,-0.17108436,0.5102514,9.791871,0.012901421,-0.0242285,-0.9859173,0.16496518,-0.17114258,0.51065063,9.834625,0.017593384,0.003997803,-6.10E-05
2023/4/28 15:25,4202,-0.07260282,-0.08834183,-0.1386118,-0.17731757,0.5093955,9.791806,0.013214105,-0.024129564,-0.98587257,0.16522236,-0.22920227,0.4220581,9.841217,-0.019699097,-0.005599976,-0.003250122
2023/4/28 15:25,4241,-0.015353248,-0.03156948,-0.03750992,-0.18366018,0.49596927,9.792378,0.013456592,-0.023308784,-0.9858815,0.16526738,-0.17173767,0.47473145,9.858566,-0.029281616,0.019973755,0.003143311
2023/4/28 15:25,4281,0.011125535,0.015056223,0.1881361,-0.19075602,0.483818,9.7928505,0.013678758,-0.022726234,-0.98586506,0.16542816,-0.19448853,0.5076599,10.107559,-0.003707886,0.008255005,0.008468628
2023/4/28 15:25,4322,0.051997542,0.022332728,0.010901451,-0.18638973,0.49293762,9.7924795,0.013537473,-0.023221307,-0.98584694,0.16547924,-0.10708618,0.5172272,9.929199,0.02078247,0.003997803,-0.006454468
2023/4/28 15:25,4361,0.040868416,-0.014436543,-0.011886597,-0.18928337,0.5064712,9.791734,0.013801293,-0.023875915,-0.98580223,0.16563047,-0.13581848,0.4801178,9.923813,0.03250122,0.022109985,-0.0128479
2023/4/28 15:25,4401,-0.05781305,-0.061719358,-0.05143547,-0.19716273,0.51210153,9.7912855,0.014249826,-0.02409017,-0.98576033,0.16581084,-0.26271057,0.4507904,9.847794,-0.001586914,0.022109985,-0.011779785
2023/4/28 15:25,4442,-0.02655518,-0.059084058,0.071240425,-0.20821552,0.5052944,9.7914095,0.01475094,-0.023652442,-0.98574376,0.16592829,-0.22859192,0.4699402,9.975876,-0.010101318,0.002929688,-6.10E-05
2023/4/28 15:25,4481,0.014181063,-0.028469563,0.13833523,-0.2045227,0.5041941,9.791544,0.014551188,-0.023631144,-0.98577976,0.16573511,-0.16395569,0.47114563,10.026764,0.027175903,-0.020507812,0.009521484
2023/4/28 15:25,4521,0.14585246,0.026672661,-0.08683777,-0.19334131,0.5166631,9.7911215,0.014088005,-0.024356827,-0.98581237,0.16547579,-0.036468506,0.52560425,9.850189,0.023986816,0.001861572,0.002075195
2023/4/28 15:25,4561,-0.00883323,-0.013803184,-0.014104843,-0.1904594,0.52422404,9.790776,0.014032102,-0.024808101,-0.9858258,0.1653337,-0.20405579,0.51483154,9.902267,0.019714355,0.002929688,-0.013916016
2023/4/28 15:25,4602,0.035967812,0.04226494,0.0603199,-0.19128057,0.53066075,9.790413,0.014127051,-0.025120296,-0.9858028,0.16541499,-0.19448853,0.58366394,9.981277,0.006942749,0.00932312,-0.025619507
2023/4/28 15:25,4641,-0.022318885,-0.028456211,-0.002523422,-0.19217028,0.53828233,9.78998,0.014210504,-0.025455821,-0.98579377,0.16541082,-0.2034607,0.51483154,9.91124,0.023986816,-0.020507812,-0.006454468
2023/4/28 15:25,4681,-0.015476078,-0.014721215,-0.089058876,-0.18777423,0.54533166,9.789676,0.014047259,-0.02584867,-0.98579705,0.16534413,-0.21183777,0.5453644,9.836426,0.017593384,-0.00453186,-0.006454468
2023/4/28 15:25,4722,0.009898901,-0.012527466,-0.037197113,-0.18724026,0.5458652,9.789656,0.014001297,-0.025892809,-0.98594695,0.16444486,-0.18132019,0.53938293,9.851379,-0.012237549,0.005065918,-0.011779785
2023/4/28 15:25,4761,-0.013314754,0.02272427,0.16930294,-0.19023088,0.54356444,9.789725,0.014137168,-0.025749313,-0.98591846,0.16462648,-0.20227051,0.57229614,10.082428,0.014389038,0.008255005,-0.017105103
2023/4/28 15:25,4801,-0.03682579,0.057753086,-0.19692993,-0.19923091,0.5521665,9.789065,0.014670893,-0.0261022,-0.9858488,0.16494136,-0.24356079,0.6363373,9.717911,-0.002655029,0.03488159,-0.018173218
2023/4/28 15:25,4842,-0.14350139,-0.04901105,0.13162231,-0.21753052,0.5419524,9.7892475,0.015513834,-0.02542909,-0.98579913,0.16526562,-0.35310364,0.4693451,10.075241,-0.034606934,7.93E-04,0.003143311
2023/4/28 15:25,4881,0.14114183,0.013966084,-0.055491447,-0.2161799,0.5404655,9.789359,0.015430611,-0.025367249,-0.9858195,0.16516136,-0.08314514,0.57528687,9.825653,0.03250122,-0.001327515,0.014846802
2023/4/28 15:25,4922,-0.020140842,0.032614112,-0.11116791,-0.21043146,0.55196935,9.788842,0.015246924,-0.026030237,-0.98579675,0.16521126,-0.25553894,0.61239624,9.825043,0.008010864,-0.005599976,-0.002197266
2023/4/28 15:25,4961,-0.003044277,0.039333403,0.07311916,-0.21453689,0.556928,9.788472,0.015493345,-0.026206156,-0.9857576,0.16539411,-0.24775696,0.61479187,9.974686,0.011199951,0.02104187,0.005264282
2023/4/28 15:25,5001,-0.04049629,-0.009663343,0.010505676,-0.22077177,0.56057227,9.788126,0.015844064,-0.026333382,-0.9857101,0.16562347,-0.25553894,0.5770874,9.869934,-0.002655029,-0.00453186,0.005264282
2023/4/28 15:25,5042,0.036009014,-0.020357847,0.037857056,-0.21942171,0.5615554,9.7881,0.015786616,-0.026392983,-0.98569596,0.16570352,-0.18132019,0.5381775,9.961517,0.012268066,0.002929688,0.0105896
2023/4/28 15:25,5081,0.0679688,0.057255507,-0.02765274,-0.21940573,0.5698285,9.787622,0.015855484,-0.026809903,-0.98568696,0.16568373,-0.15797424,0.64112854,9.863953,0.019714355,0.012512207,0.00100708
2023/4/28 15:25,5121,0.043385386,0.045229495,-0.077656746,-0.21733843,0.57950425,9.787101,0.015837552,-0.02731214,-0.9856493,0.16582726,-0.16694641,0.6351471,9.828644,0.005874634,0.002929688,0.00100708
2023/4/28 15:25,5162,0.043559015,0.005775333,-4.84E-04,-0.2167009,0.579041,9.787141,0.015796008,-0.027297415,-0.985684,0.16562739,-0.17771912,0.5453644,9.905853,-0.006912231,0.011444092,-0.02243042
2023/4/28 15:25,5201,-0.015578076,-0.020458817,0.07556248,-0.221565,0.57098466,9.787506,0.015972646,-0.026850648,-0.9856919,0.16563612,-0.2315979,0.55374146,9.984268,-0.017562866,0.006118774,-0.02456665
2023/4/28 15:25,5241,-0.027978733,0.09541428,0.034564972,-0.22489278,0.5694924,9.787518,0.016128326,-0.026774392,-0.9856965,0.16560608,-0.2722931,0.6285553,9.981277,0.001617432,-0.008789063,-0.01071167
2023/4/28 15:25,5282,-0.026035517,0.09590268,-0.06448364,-0.22413328,0.5796531,9.786939,0.016173352,-0.027266588,-0.9856898,0.16556132,-0.29981995,0.6572876,9.822052,0.016525269,-0.00453186,-0.002197266
2023/4/28 15:25,5321,0.03494914,0.033904254,-0.106609344,-0.2253836,0.5815121,9.786799,0.016234117,-0.02728837,-0.9856957,0.16551669,-0.1741333,0.5956421,9.776566,-0.027145386,0.005065918,-0.002197266
2023/4/28 15:25,5361,8.51E-04,-0.044369757,0.001251221,-0.22240461,0.56632715,9.787758,0.015965262,-0.02661517,-0.98576134,0.16526137,-0.20884705,0.55314636,9.927994,-0.028213501,-2.75E-04,-0.011779785
2023/4/28 15:25,5402,-0.08255699,0.006654561,0.25413036,-0.2298204,0.55371004,9.788308,0.016233766,-0.02591622,-0.985762,0.16534242,-0.29563904,0.56211853,10.200333,-0.017562866,-2.75E-04,0.002075195
2023/4/28 15:25,5441,0.001542389,0.03282535,0.04423046,-0.22270505,0.5631563,9.787933,0.01595214,-0.026453858,-0.98577464,0.16520907,-0.2208252,0.59265137,9.957321,0.047424316,-0.033294678,0.011657715
2023/4/28 15:25,5481,0.031562984,0.005057156,-0.14908886,-0.2144292,0.57987374,9.787142,0.01567915,-0.027364021,-0.98574215,0.16528101,-0.18251038,0.5675049,9.765793,0.027175903,-0.007720947,0.008468628
2023/4/28 15:25,5521,-0.027279168,-0.05431658,-0.11068535,-0.21655278,0.57945704,9.787121,0.015778584,-0.027327405,-0.9857651,0.16514044,-0.2758789,0.5292053,9.778366,-0.023956299,0.014648438,-0.006454468
2023/4/28 15:25,5562,-0.103210256,0.026663423,-0.008465767,-0.22671439,0.56687725,9.787626,0.016228342,-0.02650999,-0.9857149,0.16552944,-0.32556152,0.5776825,9.87532,-0.034606934,0.005065918,0.009521484
2023/4/28 15:25,5601,0.006362766,-0.07574618,0.29892445,-0.226475,0.5546893,9.788331,0.016086131,-0.025986018,-0.9856835,0.16581315,-0.26332092,0.47413635,10.2308655,0.017593384,-0.009857178,0.021240234
2023/4/28 15:25,5641,0.03507942,-0.03566754,-0.1745472,-0.2231333,0.568427,9.787619,0.016039807,-0.026702689,-0.98563313,0.16600321,-0.16635132,0.5309906,9.666428,0.042099,-0.001327515,0.0105896
2023/4/28 15:25,5681,0.042462423,0.00927645,0.030269623,-0.2202076,0.5734697,9.787392,0.015928458,-0.026951896,-0.98559594,0.16619423,-0.17054749,0.59742737,9.877716,-0.013305664,0.005065918,0.003143311
2023/4/28 15:25,5721,-0.003077358,-0.002023459,0.10892582,-0.22249287,0.5747787,9.787263,0.016072487,-0.027021356,-0.9855569,0.16640064,-0.22799683,0.5734863,10.0099945,0.017593384,0.001861572,0.009521484
2023/4/28 15:25,5761,-0.10238199,-0.04579425,-0.058329582,-0.22520836,0.58369374,9.786674,0.01629523,-0.027441073,-0.9854801,0.16676447,-0.32736206,0.5489502,9.87413,0.025054932,0.003997803,0.004196167
2023/4/28 15:25,5801,0.062326208,-0.009715021,0.003975868,-0.22332494,0.5861293,9.786571,0.016222868,-0.02757874,-0.9854679,0.16682097,-0.17173767,0.5699005,9.922607,0.006942749,-0.003463745,0.009521484
2023/4/28 15:25,5841,0.057811186,-0.003842592,0.008937836,-0.22011012,0.5881659,9.786521,0.016081477,-0.027706873,-0.98544896,0.1669254,-0.16694641,0.57170105,9.93338,5.49E-04,-0.010925293,0.0105896
2023/4/28 15:25,5882,0.122997925,0.04542291,-0.023077965,-0.21152215,0.5893161,9.786641,0.015654271,-0.027840627,-0.98548204,0.16674824,-0.08734131,0.63275146,9.894485,-0.015426636,-0.009857178,-0.00112915
2023/4/28 15:25,5921,0.07519764,-0.043991268,0.11798954,-0.20660278,0.57895535,9.787365,0.015316163,-0.027362116,-0.9855138,0.16667129,-0.15197754,0.5627136,10.050705,-0.025024414,-0.00453186,-0.011779785
2023/4/28 15:25,5961,-0.026611596,-0.023937643,-0.015562058,-0.20694806,0.576684,9.787491,0.015396406,-0.027264714,-0.98548615,0.16684331,-0.2722931,0.5980377,9.826843,0.013336182,0.022109985,-0.016036987
2023/4/28 15:25,6002,-0.06422734,0.036362946,0.08175564,-0.21744697,0.57756835,9.787212,0.015864367,-0.027191754,-0.9854208,0.16719659,-0.26750183,0.6159973,9.962112,-0.009048462,-0.011993408,-0.007522583
2023/4/28 15:25,6041,0.030526757,0.011377871,-0.09257221,-0.21048142,0.5817024,9.78712,0.015486371,-0.027489576,-0.9854362,0.16709289,-0.15975952,0.5519409,9.765198,0.009063721,-0.01411438,0.003143311
2023/4/28 15:25,6081,0.001507744,-0.024822295,0.027029037,-0.20559178,0.57908255,9.787378,0.015279619,-0.027369725,-0.98543346,0.1671476,-0.18609619,0.56510925,9.925003,-0.018630981,0.006118774,-0.0128479
2023/4/28 15:25,6122,-0.046633705,-0.045157373,0.05956173,-0.20911309,0.5708943,9.787786,0.015389665,-0.026925905,-0.9854253,0.16725771,-0.26271057,0.52381897,9.971695,-0.011169434,-0.005599976,-0.007522583
2023/4/28 15:25,6161,-0.009397149,0.03285891,-0.09430504,-0.21103561,0.56571,9.788045,0.01544533,-0.026646663,-0.98541087,0.16738214,-0.22441101,0.59265137,9.812485,-0.016494751,-0.010925293,0.006332398
2023/4/28 15:25,6201,-0.075147614,0.006139398,0.07111454,-0.21227409,0.5606906,9.788306,0.015469891,-0.026380401,-0.9853841,0.16757962,-0.26989746,0.56510925,9.943558,-0.007980347,7.93E-04,0.020187378
2023/4/28 15:25,6242,0.06981671,0.03282571,-0.09192753,-0.21067326,0.56135863,9.788303,0.015400111,-0.026424767,-0.9853522,0.16776638,-0.14060974,0.6183777,9.755615,-0.021820068,-0.01411438,0.016983032
2023/4/28 15:25,6281,0.038966447,-0.05042243,0.17937279,-0.20497687,0.5506505,9.789032,0.015025331,-0.025932485,-0.9853471,0.16790731,-0.14779663,0.48490906,10.0890045,-0.009048462,-0.001327515,0.011657715
2023/4/28 15:25,6321,0.009375885,0.020569682,-0.011105537,-0.2013863,0.549794,9.789155,0.014847712,-0.025914196,-0.98528326,0.16829996,-0.18070984,0.56510925,9.896271,0.008010864,-0.006652832,0.007400513
2023/4/28 15:25,6361,-0.039555773,0.021845639,-0.007822037,-0.20103242,0.551033,9.789092,0.014883949,-0.025989763,-0.9851895,0.1688331,-0.23757935,0.5681,9.91243,0.004806519,0.003997803,0.006332398
2023/4/28 15:25,6402,-0.014439836,-0.005111873,-0.04259014,-0.20301454,0.55302036,9.788939,0.01498592,-0.026046174,-0.9850929,0.16937849,-0.2250061,0.5699005,9.904053,0.003738403,-0.005599976,0.009521484
2023/4/28 15:25,6441,0.009483144,0.016097128,0.1146059,-0.20301887,0.55163735,9.789018,0.01497808,-0.025974294,-0.9850692,0.16952777,-0.18132019,0.5704956,10.0099945,-0.004776001,0.005065918,0.007400513
2023/4/28 15:25,6481,0.023897767,0.017885387,0.05527687,-0.20110776,0.55827224,9.788681,0.014953564,-0.026316622,-0.9849703,0.17005123,-0.17353821,0.5806732,9.989044,0.03250122,0.001861572,0.013793945
2023/4/28 15:25,6522,-0.005275756,0.014315188,-0.13540459,-0.20137425,0.5683266,9.788096,0.015069712,-0.02681152,-0.9848586,0.17060971,-0.21124268,0.5980377,9.761597,-0.003707886,0.010391235,-0.004318237
2023/4/28 15:25,6561,-0.021924585,-0.06430656,0.14186573,-0.20053375,0.56390184,9.78837,0.015001175,-0.026589299,-0.98478615,0.17106783,-0.23098755,0.48132324,10.046509,0.018661499,0.001861572,0.002075195
2023/4/28 15:25,6601,-0.07403803,0.023073733,-0.15184212,-0.20623021,0.56868625,9.787974,0.015347578,-0.026769867,-0.9846598,0.17173517,-0.24116516,0.5788727,9.777161,-0.006912231,7.93E-04,0.011657715
2023/4/28 15:25,6642,0.03750953,0.037516236,0.07781124,-0.20460369,0.56813824,9.788041,0.015274652,-0.026748754,-0.9845737,0.17223746,-0.16036987,0.6279602,9.967499,0.009063721,-0.009857178,0.008468628
2023/4/28 15:25,6681,0.009533018,-0.030647993,-0.012163162,-0.19682972,0.5756028,9.787765,0.014959482,-0.027187001,-0.9845051,0.17258848,-0.16514587,0.56391907,9.896881,0.026107788,-0.005599976,-0.007522583
2023/4/28 15:25,6721,0.057866797,-0.013892591,-0.12613583,-0.1958972,0.58178514,9.787417,0.014981961,-0.027498055,-0.9844037,0.17311479,-0.14421082,0.56510925,9.777161,-5.19E-04,0.012512207,-0.002197266
2023/4/28 15:25,6761,-0.08624801,-0.016041398,0.122899055,-0.2024552,0.5801709,9.787379,0.015306265,-0.027353967,-0.98434526,0.17344129,-0.30282593,0.5591278,10.016586,0.003738403,0.00718689,-0.003250122
2023/4/28 15:25,6802,-0.006701604,-0.037227333,-0.0253191,-0.20503972,0.58417386,9.787087,0.015484801,-0.027524997,-0.98425496,0.17391013,-0.21003723,0.54415894,9.905853,0.014389038,-0.008789063,0.004196167
2023/4/28 15:25,6841,0.0609577,-0.040056825,-0.003324509,-0.19921641,0.5859826,9.7871,0.015214313,-0.027664242,-0.98421764,0.17412315,-0.12625122,0.5627136,9.901062,0.008010864,-0.009857178,-0.007522583
2023/4/28 15:25,6881,-0.012061253,0.052111506,-0.21207142,-0.19819051,0.58853686,9.786967,0.015196805,-0.027795594,-0.9841436,0.17452168,-0.24057007,0.64112854,9.723297,-0.020751953,0.00932312,-0.01071167
2023/4/28 15:25,6922,-0.0589543,-0.005350888,0.2455244,-0.20444097,0.57653034,9.787554,0.015412276,-0.027131515,-0.9841023,0.17483981,-0.28067017,0.5387726,10.147675,-0.021820068,0.002929688,0.002075195
2023/4/28 15:25,6961,0.006153107,-0.031456888,0.11177063,-0.20342715,0.5760758,9.787601,0.015362584,-0.027114697,-0.98406935,0.17503238,-0.20405579,0.58306885,9.998032,0.03250122,-0.010925293,-0.002197266
2023/4/28 15:25,7001,0.049718305,-0.003512025,-0.11750603,-0.20012735,0.585643,9.787102,0.015284805,-0.027649183,-0.9840141,0.17526592,-0.13821411,0.5495453,9.73407,0.014389038,0.006118774,-0.008575439
2023/4/28 15:25,7041,-0.01675202,0.04582113,-0.021619797,-0.20086335,0.5852969,9.7871065,0.015324823,-0.027596373,-0.98400337,0.17533088,-0.20765686,0.6489105,9.857971,-0.019699097,0.002929688,-0.009643555
2023/4/28 15:25,7081,-0.055772394,-0.04960984,0.13955498,-0.20475003,0.5827961,9.787176,0.015499793,-0.027434716,-0.98399115,0.17540962,-0.25074768,0.55314636,10.035736,0.004806519,0.002929688,-6.10E-05
2023/4/28 15:25,7122,-0.030161187,-0.020351052,0.043376923,-0.20477392,0.59099704,9.786684,0.015579483,-0.02784397,-0.98394805,0.17557976,-0.24116516,0.5513458,9.941772,0.041030884,-0.005599976,-0.00112915
2023/4/28 15:25,7161,-0.04279083,0.001466036,-0.2877121,-0.20668803,0.60226953,9.785956,0.015783058,-0.028390018,-0.9838917,0.17578942,-0.25134277,0.5968323,9.585632,0.009063721,0.013580322,-0.004318237
2023/4/28 15:25,7202,-0.0820051,-0.012069166,0.16823196,-0.21425298,0.5921688,9.78641,0.016076023,-0.027812343,-0.9838786,0.17592886,-0.30999756,0.5812683,10.080627,-0.03567505,0.00718689,-6.10E-05
2023/4/28 15:25,7241,0.034514412,0.020711184,0.035149574,-0.21314998,0.5917661,9.786458,0.016017582,-0.027801657,-0.9838761,0.17594968,-0.17652893,0.6159973,9.91304,0.031433105,-0.013046265,0.014846802
2023/4/28 15:25,7281,0.06720117,-0.0392434,0.042441368,-0.19998673,0.5985668,9.786323,0.015406777,-0.028267423,-0.98394066,0.17556852,-0.15019226,0.59085083,10.018982,0.016525269,-0.006652832,-0.007522583
2023/4/28 15:25,7322,-0.023350284,0.030849397,-0.051657677,-0.19976415,0.60839707,9.785721,0.01548484,-0.028763033,-0.98392,0.17559713,-0.17233276,0.6387329,9.844208,0.031433105,0.00932312,-0.009643555
2023/4/28 15:25,7361,-0.06490499,0.028233588,-0.09506321,-0.20763785,0.61762774,9.784979,0.016032409,-0.029156066,-0.98388,0.17570724,-0.33573914,0.666275,9.870544,5.49E-04,0.00718689,-0.013916016
2023/4/28 15:25,7402,-0.03455597,-0.020291388,-0.057019234,-0.2142815,0.61917704,9.784738,0.016310316,-0.029175356,-0.98389894,0.17557238,-0.24716187,0.60102844,9.865753,0.004806519,0.002929688,0.004196167
2023/4/28 15:25,7441,0.073737875,-0.015389442,-0.007774353,-0.20924702,0.61742395,9.784958,0.016033119,-0.029136978,-0.983956,0.17528433,-0.1280365,0.6094055,9.860367,-0.002655029,-0.007720947,0.007400513
2023/4/28 15:25,7481,-5.39E-04,-0.004927516,0.041452408,-0.20297554,0.61354107,9.785334,0.015672116,-0.029003821,-0.9840327,0.17490807,-0.2028656,0.634552,9.948349,-0.006912231,-0.007720947,0.002075195
2023/4/28 15:25,7522,0.047929138,0.06456429,-0.073041916,-0.19795862,0.617132,9.785211,0.015444333,-0.029233241,-0.9840769,0.17464127,-0.1561737,0.68362427,9.822052,-0.007980347,-0.007720947,-0.002197266
2023/4/28 15:25,7561,-0.057813004,-0.007642686,0.014597893,-0.19606143,0.61534274,9.785361,0.015326978,-0.029163351,-0.9841169,0.17443766,-0.23698425,0.61299133,9.898666,-0.002655029,0.005065918,-0.016036987
2023/4/28 15:25,7601,0.061860994,-0.08110231,-0.08911896,-0.19759679,0.608648,9.785749,0.015337693,-0.028816653,-0.98416686,0.17421232,-0.12565613,0.53219604,9.797516,-0.017562866,-2.75E-04,-0.013916016
2023/4/28 15:25,7641,-0.021148607,0.014986575,-0.04030323,-0.19609796,0.5938479,9.786689,0.015078409,-0.028020892,-0.98426384,0.17381635,-0.20227051,0.6531067,9.894485,-0.041000366,-0.009857178,-0.006454468
2023/4/28 15:25,7681,-0.08404046,0.13696307,0.23989773,-0.19618534,0.586942,9.787104,0.015061081,-0.027744526,-0.9842773,0.17378607,-0.2866516,0.7141571,10.117737,-0.009048462,7.93E-04,-0.017105103
2023/4/28 15:25,7722,-0.030118614,0.0742718,-0.03273964,-0.20050798,0.5981485,9.786338,0.015370118,-0.028360195,-0.98426604,0.17372343,-0.23278809,0.65849304,9.903458,0.022918701,-0.013046265,-0.01071167
2023/4/28 15:25,7761,0.002529591,-0.002442479,-0.040146828,-0.19639271,0.60745716,9.785848,0.015272085,-0.028792629,-0.9842646,0.17366908,-0.19328308,0.6165924,9.869339,0.009063721,0.008255005,-0.018173218
2023/4/28 15:25,7802,-0.09579001,-0.003587723,0.036213875,-0.20460768,0.6076279,9.785668,0.015667083,-0.028710637,-0.9842481,0.17374077,-0.29803467,0.5675049,9.952545,0.005874634,7.93E-04,-0.008575439
2023/4/28 15:25,7841,0.03758365,0.044246674,-0.1260004,-0.19681685,0.61476034,9.785383,0.015336852,-0.029139405,-0.9842541,0.17366494,-0.16036987,0.6776428,9.75502,0.017593384,-0.024765015,-0.003250122
2023/4/28 15:25,7881,0.066566765,0.001663744,-0.109493256,-0.19106998,0.61346674,9.785578,0.01503407,-0.029126523,-0.9842741,0.17358023,-0.12504578,0.6094055,9.781952,-0.029281616,0.014648438,-0.011779785
2023/4/28 15:25,7921,-0.08371556,-0.009505928,0.21387386,-0.19649947,0.6027154,9.786139,0.015211387,-0.028537873,-0.98428804,0.17358343,-0.2722931,0.5956421,10.088409,-0.004776001,0.012512207,-0.0128479
2023/4/28 15:25,7961,-0.09512587,-0.02269262,-0.001948357,-0.20218343,0.608098,9.78569,0.015544841,-0.028758226,-0.98427653,0.17358293,-0.33753967,0.59265137,9.880112,0.035705566,-0.015182495,0.00100708
2023/4/28 15:25,8002,-0.001217276,-0.01814133,-0.070370674,-0.19896592,0.61865973,9.785093,0.015473719,-0.02931952,-0.98428106,0.17346972,-0.20585632,0.6064148,9.780151,0.025054932,-0.010925293,0.019119263
2023/4/28 15:25,8041,0.10617234,-0.01586467,-0.14700031,-0.1935359,0.61896086,9.785184,0.015199564,-0.029384717,-0.9843068,0.17333671,-0.11427307,0.62615967,9.772369,-0.028213501,-0.005599976,0.008468628
2023/4/28 15:25,8081,-0.006999478,-0.04686743,0.103987694,-0.19141945,0.6034207,9.786196,0.014948811,-0.028625373,-0.98437184,0.17311612,-0.1968689,0.5734863,9.9734955,-0.029281616,0.005065918,-0.004318237
2023/4/28 15:25,8122,-0.029729366,-0.009660244,0.10912418,-0.19337468,0.59763587,9.786511,0.014997529,-0.028345788,-0.98437214,0.17315628,-0.2315979,0.592041,10.022568,0.015457153,-0.010925293,0.0105896
2023/4/28 15:25,8161,-0.057749122,-0.008617938,-0.006394386,-0.1903612,0.60582525,9.786068,0.014915312,-0.02875647,-0.9843784,0.17305987,-0.2501526,0.6165924,9.881912,0.026107788,-0.005599976,0.007400513
2023/4/28 15:25,8202,0.005962536,0.03717804,-0.06726456,-0.19216695,0.61577064,9.785412,0.01509778,-0.029238805,-0.98434037,0.17317967,-0.16993713,0.678833,9.7999115,0.018661499,7.93E-04,0.013793945
2023/4/28 15:25,8241,0.018247172,-0.02613622,-0.022958755,-0.19253975,0.6232219,9.784932,0.015183294,-0.02960986,-0.98432404,0.17320195,-0.16575623,0.60401917,9.882507,0.002670288,-0.001327515,0.011657715
2023/4/28 15:25,8281,0.05533655,0.046069026,0.006796837,-0.18926488,0.6237438,9.784964,0.015018595,-0.02966742,-0.9843526,0.17304406,-0.13941956,0.678833,9.914825,0.004806519,-0.008789063,0.021240234
2023/4/28 15:25,8321,0.007308245,-0.07276869,0.2074318,-0.18337318,0.6263046,9.784912,0.014742289,-0.02984961,-0.98436826,0.17294736,-0.16815186,0.5693054,10.114746,0.03463745,-0.00239563,0.01272583
2023/4/28 15:25,8361,0.027788132,-0.025770009,-0.24334049,-0.1829356,0.63969314,9.784054,0.014851484,-0.030573804,-0.98436475,0.17283149,-0.16694641,0.6171875,9.608978,0.025054932,0.00932312,0.008468628
2023/4/28 15:25,8402,-0.029863372,-0.07024431,0.031980515,-0.18465574,0.6364734,9.784232,0.01489185,-0.030352147,-0.9843791,0.17278527,-0.21482849,0.57528687,9.899872,-0.001586914,-0.00239563,0.011657715
2023/4/28 15:25,8441,0.13858156,0.009997487,-0.18213749,-0.17819415,0.6356047,9.784409,0.014495172,-0.030365812,-0.98445904,0.1723606,-0.05142212,0.666275,9.766388,-0.009048462,0.003997803,0.008468628
2023/4/28 15:25,8482,0.043856844,-0.01509881,-0.04814911,-0.17448626,0.62715966,9.78502,0.014281593,-0.029981278,-0.9844958,0.17223567,-0.184906,0.595047,9.837616,-0.036743164,0.00932312,-0.006454468
2023/4/28 15:25,8521,-0.041658282,-0.09068006,0.094901085,-0.1832179,0.6098586,9.785953,0.014566407,-0.029035194,-0.98452824,0.17218845,-0.22680664,0.5495453,9.983658,-0.028213501,0.012512207,-0.011779785
2023/4/28 15:25,8561,0.019643024,0.005359113,0.14202213,-0.18329653,0.60168034,9.786458,0.014493535,-0.028625587,-0.9845696,0.17202689,-0.15377808,0.61479187,10.020767,0.003738403,-0.009857178,-0.002197266
2023/4/28 15:25,8602,0.061912224,0.02166897,-0.008033752,-0.1748858,0.6102517,9.786081,0.014110322,-0.029147867,-0.98477167,0.17081013,-0.113082886,0.6309509,9.883102,0.023986816,-0.017318726,-0.004318237
2023/4/28 15:25,8641,0.13892016,-0.001988053,-0.16759682,-0.16228321,0.6129749,9.786128,0.013494494,-0.029397385,-0.9848084,0.17060529,-0.02748108,0.64053345,9.725098,-0.021820068,-0.020507812,-0.023498535
2023/4/28 15:25,8681,0.02576445,0.09854019,0.049357414,-0.15515558,0.6086042,9.786517,0.013110866,-0.029235652,-0.9848518,0.17041242,-0.14300537,0.7171478,9.917831,-0.015426636,0.00718689,-0.037338257
2023/4/28 15:25,8721,-0.008444339,0.067082465,0.064538,-0.15618661,0.6086475,9.786498,0.013149347,-0.0292675,-0.9848497,0.17041583,-0.20227051,0.73750305,9.921417,-0.009048462,-0.008789063,-0.035217285
2023/4/28 15:25,8762,-0.08893955,0.08217347,0.13562393,-0.15582281,0.6126808,9.786252,0.013160181,-0.029441886,-0.9848519,0.17037216,-0.26571655,0.6973877,10.066864,0.005874634,-0.01625061,-0.027755737
2023/4/28 15:25,8801,-0.07575633,0.09695089,0.012635231,-0.1563433,0.62436736,9.785505,0.013288162,-0.03002539,-0.9848335,0.17036706,-0.1968689,0.70098877,9.952545,0.025054932,-0.011993408,-0.013916016
2023/4/28 15:25,8842,-0.048534855,0.01451993,-0.029768944,-0.15188546,0.6365876,9.784788,0.013166121,-0.030680904,-0.9848402,0.17022063,-0.1968689,0.66986084,9.877121,0.023986816,-0.019439697,-0.013916016
2023/4/28 15:25,8881,-0.011610508,0.045047343,-0.068800926,-0.14845453,0.6493245,9.784004,0.013100445,-0.031353336,-0.98484296,0.17008738,-0.15856934,0.686615,9.8394165,0.031433105,-0.009857178,0.003143311
2023/4/28 15:25,8921,-0.032176957,0.049628615,-0.045211792,-0.14893611,0.65856326,9.783379,0.013207112,-0.031813264,-0.9848164,0.17014766,-0.1747284,0.7003784,9.85498,0.011199951,-0.010925293,0.01272583
2023/4/28 15:25,8962,-0.14051208,0.011415243,-0.015287399,-0.14953983,0.66467005,9.782956,0.013288771,-0.032116137,-0.98481566,0.17008834,-0.28726196,0.6872101,9.8867035,0.008010864,0.00718689,0.009521484
2023/4/28 15:25,9001,-0.1261755,-0.08369076,0.10073662,-0.15948617,0.66398656,9.7828455,0.013779633,-0.031996917,-0.98483026,0.16998723,-0.28845215,0.6058197,10.0052185,0.009063721,0.008255005,0.026565552
2023/4/28 15:25,9041,0.03993073,-0.096797526,-0.016318321,-0.15924487,0.66086,9.783062,0.01371171,-0.031798296,-0.98486567,0.1698249,-0.15078735,0.5375824,9.893875,0.002670288,-2.75E-04,0.018051147
2023/4/28 15:25,9082,-0.0696045,-0.028481364,-0.07012558,-0.16092867,0.66662973,9.782642,0.013870181,-0.0321196,-0.9848515,0.16983368,-0.22621155,0.62976074,9.85437,0.05807495,-2.75E-04,0.04574585
2023/4/28 15:25,9121,0.07320203,0.14266753,-0.33465862,-0.16052029,0.68411666,9.781442,0.014009952,-0.032999795,-0.98477876,0.17007518,-0.11009216,0.8542175,9.536545,-0.021820068,0.003997803,0.041488647
2023/4/28 15:25,9162,-0.06426431,-0.06454617,0.22357273,-0.16503537,0.668322,9.782459,0.014109396,-0.032161325,-0.9847516,0.17038445,-0.23518372,0.62197876,10.071655,-0.038864136,0.017837524,0.026565552
2023/4/28 15:25,9201,0.09528297,-0.06882477,0.17419624,-0.17148586,0.6591497,9.78297,0.014349685,-0.03168036,-0.9846916,0.17080054,-0.0879364,0.5992279,10.087219,0.027175903,0.008255005,0.026565552
2023/4/28 15:25,9242,0.06808972,-0.10045624,-0.24134636,-0.16341276,0.6706841,9.782324,0.014064273,-0.032287393,-0.98466444,0.17086723,-0.10231018,0.5986328,9.653259,0.037826538,-2.75E-04,0.023376465
2023/4/28 15:25,9281,0.12186934,0.068872094,-0.34297752,-0.16232717,0.6661938,9.78265,0.013992731,-0.032061152,-0.9845535,0.17155376,-0.04244995,0.7327118,9.55809,-0.06336975,0.001861572,0.025512695
2023/4/28 15:25,9321,0.002397299,-0.005346239,0.20983028,-0.15959133,0.6380321,9.784572,0.01361495,-0.030665096,-0.9845625,0.17178737,-0.17114258,0.62976074,10.083023,-0.048461914,0.005065918,0.005264282
2023/4/28 15:25,9362,-0.008231476,0.028668106,0.12840939,-0.1662304,0.6285493,9.785075,0.013871066,-0.030127263,-0.9845421,0.17197907,-0.18370056,0.65849304,10.100983,-0.005844116,0.013580322,-0.006454468
2023/4/28 15:25,9401,0.027522236,0.03541577,0.062389374,-0.16397092,0.63331777,9.784804,0.013769568,-0.030472057,-0.98449636,0.17218821,-0.11248779,0.65249634,9.915436,0.03463745,-0.019439697,0.003143311
2023/4/28 15:25,9441,0.006889105,-0.027929902,-0.23471832,-0.1561419,0.642405,9.784341,0.013494387,-0.030909019,-0.9844768,0.17224391,-0.12145996,0.6159973,9.652069,-0.003707886,-0.010925293,-0.013916016
2023/4/28 15:25,9482,0.07856883,0.08624601,-0.07110691,-0.1531552,0.63508546,9.784866,0.013276486,-0.030568477,-0.9845085,0.17214048,-0.0771637,0.7117615,9.780151,-0.043136597,0.002929688,-0.0128479
2023/4/28 15:25,9521,-0.014047593,0.023703575,0.13522053,-0.15600675,0.6228075,9.78561,0.013306577,-0.02992812,-0.9845564,0.17197685,-0.16096497,0.63993835,9.985458,-0.028213501,0.01676941,-0.017105103
2023/4/28 15:25,9561,-0.09522708,0.016364455,0.21023846,-0.16812727,0.6168414,9.785788,0.013858196,-0.029524146,-0.9845901,0.17180982,-0.27288818,0.63275146,10.10817,-0.006912231,0.008255005,-0.018173218
2023/4/28 15:25,9601,0.04737422,0.04494381,-0.106126785,-0.16401598,0.62489426,9.785346,0.01372514,-0.02996395,-0.98456305,0.1718992,-0.103500366,0.66267395,9.771179,0.022918701,-0.029037476,0.005264282
2023/4/28 15:25,9642,0.105751455,6.50E-06,0.023596764,-0.15115732,0.6287754,9.785304,0.013109028,-0.030273573,-0.9845847,0.17176928,-0.06159973,0.6285553,9.923218,-0.007980347,0.00718689,-0.004318237
2023/4/28 15:25,9681,0.0936722,-0.040665865,0.07971287,-0.14891522,0.6258379,9.785527,0.012965327,-0.030147672,-0.98461986,0.1716005,-0.048431396,0.61180115,9.969894,0.003738403,0.005065918,-0.016036987
2023/4/28 15:25,9721,0.074841335,-0.039783537,-0.031636238,-0.14272311,0.62200695,9.785863,0.012606208,-0.030015118,-0.9847098,0.17113386,-0.091537476,0.62376404,9.862152,-0.005844116,-0.011993408,-0.019241333
2023/4/28 15:25,9761,0.064790905,0.056388974,0.06217861,-0.13298574,0.6210302,9.786062,0.012048166,-0.030048842,-0.98480946,0.1705937,-0.062194824,0.65489197,9.948944,-0.014373779,-0.005599976,-0.009643555
2023/4/28 15:25,9802,-0.00699994,0.020407975,0.106245995,-0.12527597,0.6260371,9.785846,0.011738178,-0.030380273,-0.98485744,0.17027943,-0.11187744,0.67225647,10.039337,0.04421997,-0.011993408,-0.003250122
2023/4/28 15:25,9841,0.033648506,0.08119953,-0.28250313,-0.12507959,0.64423895,9.784667,0.011886648,-0.031297952,-0.98482895,0.17026772,-0.09272766,0.73091125,9.619751,0.009063721,0.003997803,0.0105896
2023/4/28 15:25,9881,0.03679335,0.03830391,0.050699234,-0.12739326,0.6415345,9.784815,0.011974253,-0.03114376,-0.98486084,0.17010547,-0.108291626,0.6956024,9.948944,-0.027145386,0.00932312,0.02444458
2023/4/28 15:25,9921,0.11502159,0.038473547,0.12662125,-0.12567408,0.6357625,9.7852125,0.011835132,-0.030869164,-0.9848844,0.17002863,0.026977539,0.6997833,10.0052185,-0.012237549,0.027435303,0.026565552
2023/4/28 15:25,9962,0.03294681,-0.008870244,0.15689564,-0.13076338,0.6397302,9.784888,0.012122992,-0.03102569,-0.98489,0.16994745,-0.07058716,0.6465149,10.040527,0.043151855,0.012512207,0.026565552
2023/4/28 15:25,10001,0.09678458,0.034665406,-0.49316502,-0.12978235,0.6570174,9.783755,0.012230848,-0.031901542,-0.98482496,0.17015436,-0.05203247,0.7117615,9.33963,0.012268066,-0.01411438,0.03616333
2023/4/28 15:25,10041,0.050675154,0.05043131,0.14461136,-0.13728751,0.6351545,9.785096,0.012432116,-0.030730458,-0.9847794,0.17061825,-0.13821411,0.73809814,10.056091,-0.062301636,0.078567505,0.006332398
2023/4/28 15:25,10081,0.09800944,0.0846796,0.3487358,-0.15745492,0.6236076,9.785536,0.013340702,-0.02997605,-0.9848156,0.17047492,-0.19088745,0.71235657,10.1315,0.012268066,0.027435303,-0.00112915
2023/4/28 15:25,10122,0.1528615,0.07858521,-0.28522778,-0.14693162,0.6120935,9.786427,0.012729145,-0.029186238,-0.9848555,0.17042823,0.032974243,0.70877075,9.778961,-0.120895386,0.027435303,0.01272583
2023/4/28 15:25,10161,-0.14302586,-0.061163604,0.6549635,-0.18459332,0.5733072,9.788137,0.014250404,-0.027218007,-0.98497987,0.16991404,-0.31837463,0.508255,10.514572,-0.023956299,0.10093689,0.026565552
2023/4/28 15:25,10201,0.4590154,-0.031096816,0.21555805,-0.21463299,0.5880187,9.786652,0.01591326,-0.027683917,-0.9847908,0.17078485,0.2598114,0.57170105,10.086014,0.054870605,0.064712524,0.06704712
2023/4/28 15:25,10241,0.60303515,-0.1338228,-0.105005264,-0.22832868,0.5881131,9.786337,0.016605306,-0.027567863,-0.98476595,0.17088084,0.3855133,0.45736694,9.790924,-0.04951477,0.045532227,0.004196167
2023/4/28 15:25,10282,0.8177097,-0.16157126,0.5797548,-0.2476338,0.5512121,9.788015,0.017224943,-0.025562659,-0.98499537,0.16980556,0.5417328,0.39871216,10.5074005,-0.07722473,0.08494568,-0.05758667
2023/4/28 15:25,10321,0.2508807,-0.35074073,0.1031847,-0.2629078,0.561324,9.787041,0.0180258,-0.025977524,-0.9853287,0.16771306,-0.017318726,0.21316528,9.931595,0.14009094,0.008255005,-0.039474487
2023/4/28 15:25,10361,0.2303299,-0.18733793,-1.0894852,-0.2433283,0.62896895,9.783434,0.017581541,-0.029573547,-0.9854655,0.16635518,-0.024490356,0.4615631,8.735687,0.18377686,-0.059921265,-0.042663574
2023/4/28 15:25,10401,-0.298082,0.4014606,-1.315218,-0.22033283,0.685409,9.780187,0.016844187,-0.032958962,-0.9855736,0.16515042,-0.5506134,1.1905975,8.572876,0.11665344,-0.03968811,-0.014968872
2023/4/28 15:25,10442,-0.71380186,0.95658857,-2.0212564,-0.2254275,0.69818956,9.779166,0.01722974,-0.033232562,-0.98556274,0.16512077,-0.91693115,1.6556702,7.9138794,-0.26576233,0.057250977,0.019119263
2023/4/28 15:25,10481,-0.8537936,1.127471,0.6501694,-0.2883751,0.48814493,9.790247,0.019041304,-0.020082967,-0.9858513,0.16532177,-1.1755066,1.6119843,10.604355,-0.81437683,0.27244568,-0.023498535
2023/4/28 15:25,10521,-0.7293403,1.1840566,2.9551506,-0.42163995,0.20042047,9.795531,0.022892402,-0.006544326,-0.98609346,0.16447742,-1.1623383,1.3917084,12.78009,-0.45751953,0.22557068,-0.05970764
2023/4/28 15:25,10561,-0.44082877,0.9084771,1.8016691,-0.44945517,0.21459737,9.793995,0.024403399,-0.007052702,-0.986245,0.16332677,-0.9265137,1.1157837,11.835587,0.37019348,-0.06098938,0.00100708
2023/4/28 15:25,10602,0.14563641,0.700531,-1.5763216,-0.42871037,0.43346933,9.787681,0.025192637,-0.018234301,-0.9860396,0.16358127,-0.28007507,1.144516,8.249664,0.5768585,-0.009857178,0.051071167
2023/4/28 15:25,10641,0.041535735,0.7139165,-2.480569,-0.43003213,0.5866165,9.779639,0.026547402,-0.025930995,-0.9858102,0.16371004,-0.42552185,1.2827759,7.3727875,0.15713501,0.03276062,-0.003250122
2023/4/28 15:25,10681,-0.22409612,0.80754125,-1.2078037,-0.45029125,0.55063486,9.780819,0.027248552,-0.023969214,-0.98595554,0.1630173,-0.69906616,1.3629761,8.724319,-0.33181763,0.017837524,-0.09486389
2023/4/28 15:25,10722,-0.5312831,0.8549075,0.43510056,-0.46060178,0.411607,9.787175,0.026566925,-0.016944237,-0.98649114,0.16075546,-1.0438232,1.2851715,10.341003,-0.35205078,0.012512207,-0.15559387
2023/4/28 15:25,10761,-0.52907455,1.0251935,0.9874191,-0.459702,0.326369,9.790431,0.025631312,-0.012669476,-0.9870273,0.15798618,-0.9833679,1.3558044,10.877899,-0.06550598,-0.071640015,-0.11190796
2023/4/28 15:25,10801,-0.2802582,1.14998,-0.041339874,-0.4322404,0.3670946,9.79024,0.02470536,-0.015044464,-0.98727196,0.15638864,-0.6517792,1.5610962,9.67482,0.20082092,-0.097213745,-0.103393555
2023/4/28 15:25,10841,-0.21999142,1.1884158,-0.8438206,-0.3854213,0.44404098,9.789007,0.022605278,-0.0197469,-0.98766685,0.15366612,-0.5787506,1.6526794,9.071472,0.10707092,-0.15686035,-0.15559387
2023/4/28 15:25,10882,-0.14914858,1.0722504,-0.3859787,-0.33212817,0.478509,9.789337,0.020420033,-0.02158188,-0.9881854,0.15035562,-0.49195862,1.5724792,9.475494,0.015457153,-0.0897522,-0.20991516
2023/4/28 15:25,10921,-0.693213,0.9284293,-0.31510353,-0.30906695,0.4805854,9.789989,0.019180804,-0.02194385,-0.9888241,0.14621009,-0.986969,1.4072723,9.540741,-0.034606934,-0.10786438,-0.25146484
2023/4/28 15:25,10961,-0.8279753,1.2625983,0.1624775,-0.27780455,0.45666724,9.792072,0.017352052,-0.021028642,-0.98937154,0.1428308,-1.1096649,1.6873932,9.97229,-0.13261414,-0.106796265,-0.18222046
2023/4/28 15:25,11002,-1.0477306,1.7679319,1.5170565,-0.24686824,0.41065928,9.794938,0.015387345,-0.018984322,-0.9899394,0.13936569,-1.3113708,2.1811981,11.466873,-0.109176636,-0.16218567,-0.22695923
2023/4/28 15:25,11041,-0.8710346,2.2495873,1.7755203,-0.17397603,0.4210149,9.796063,0.011721353,-0.020059003,-0.99036705,0.1365039,-1.0300598,2.6678162,11.659012,0.038894653,-0.23782349,-0.20245361
2023/4/28 15:25,11081,-1.2473602,0.7647729,2.118948,-0.1241106,0.45157865,9.795462,0.009344168,-0.021980975,-0.990787,0.13330625,-1.3736267,1.1552887,12.030106,0.076187134,-0.059921265,-0.19073486
2023/4/28 15:25,11121,-0.6374089,-0.6791398,1.5132475,-0.13039477,0.50671816,9.792682,0.009991801,-0.024745516,-0.9909614,0.13146646,-0.74635315,-0.26087952,11.396835,0.27539062,0.03488159,-0.056518555
2023/4/28 15:25,11162,-0.6021222,-1.8462821,-0.048068047,-0.19250353,0.645214,9.783509,0.014072598,-0.031335026,-0.9906948,0.13169615,-0.7882385,-1.2071991,9.638901,0.45755005,0.35020447,0.027633667
2023/4/28 15:25,11201,-0.23628417,-2.060429,-0.8971119,-0.36376607,0.73207027,9.77252,0.023375057,-0.034551308,-0.99022126,0.1331229,-0.62184143,-1.3089447,8.973907,0.016525269,0.27456665,0.058532715
2023/4/28 15:25,11241,0.35267955,-2.204912,-0.52086735,-0.39984876,0.732188,9.771101,0.02523647,-0.03428758,-0.9900498,0.1341229,0.059310913,-1.4472198,9.287552,0.11878967,-0.053527832,0.1277771
2023/4/28 15:25,11282,1.181461,-1.9965665,-1.1693783,-0.33287385,0.7418865,9.772881,0.022033637,-0.035161186,-0.989637,0.13746578,0.8440094,-1.2401123,8.717133,-0.02609253,-0.15260315,0.21832275
2023/4/28 15:25,11321,1.2610162,-1.671961,-0.21033001,-0.24818681,0.6607157,9.781219,0.01729164,-0.03158523,-0.9893544,0.14100118,1.0002289,-1.0186462,9.744843,-0.27642822,-0.16218567,0.16505432
2023/4/28 15:25,11361,1.0007467,-1.1714733,0.5167093,-0.1973135,0.563647,9.78845,0.014058305,-0.027024155,-0.98934025,0.14240068,0.7967224,-0.5811157,10.38829,-0.109176636,-0.045013428,0.0851593
2023/4/28 15:25,11401,0.7218615,-0.4969821,-0.24545193,-0.16656306,0.55392027,9.7895775,0.012473534,-0.026737677,-0.9891609,0.14384118,0.48487854,0.058135986,9.638306,0.031433105,-0.10040283,0.08836365
2023/4/28 15:25,11442,0.20086226,-0.44605166,-0.20679855,-0.101539075,0.5514022,9.790609,0.009237607,-0.027065048,-0.9888387,0.14621998,0.1000061,0.14852905,9.745438,-0.021820068,-0.17816162,0.13949585
2023/4/28 15:25,11481,0.14556979,-0.38134366,-0.028226852,-0.04861992,0.53155965,9.792112,0.006297069,-0.026248699,-0.9883438,0.14982635,0.088027954,0.14672852,9.915436,-0.076156616,-0.0705719,0.1000824
2023/4/28 15:25,11521,0.06419423,-0.33478886,0.7112236,-0.011459423,0.5059544,9.793584,0.004510908,-0.025414484,-0.98798615,0.15237164,0.0718689,0.20478821,10.608551,0.030380249,-0.1131897,0.10752869
2023/4/28 15:25,11562,0.23856923,-0.22425419,-0.01523304,0.042595644,0.55277914,9.790966,0.002220804,-0.028191414,-0.9875362,0.15483075,0.31547546,0.33047485,9.812485,0.22531128,-0.13768005,0.1320343
2023/4/28 15:25,11601,0.2151769,-0.1805672,-0.7920351,0.084423475,0.6254313,9.786323,8.24E-04,-0.03218345,-0.9867497,0.15902363,0.3166809,0.46096802,9.096619,0.0697937,-0.019439697,0.089416504
2023/4/28 15:25,11641,0.037968643,-0.3233357,0.080574036,0.07975172,0.618575,9.786797,0.001073323,-0.031797588,-0.98641306,0.16117406,0.116760254,0.33348083,9.941772,-0.022888184,0.023162842,0.044677734
2023/4/28 15:25,11682,0.22116625,-0.16482705,-0.2806282,0.07053098,0.62169045,9.78667,0.001632773,-0.031875197,-0.98605555,0.16332711,0.30171204,0.4729309,9.610764,0.012268066,0.035949707,0.09048462
2023/4/28 15:25,11721,0.3791455,-0.005340636,-0.05570984,0.069694825,0.60613984,9.787652,0.001618563,-0.03108111,-0.98569196,0.16565855,0.46032715,0.6183777,9.850784,-0.0708313,-0.00239563,0.06704712
2023/4/28 15:25,11761,0.045441218,0.13194585,0.099710464,0.08570422,0.59638125,9.788124,7.91E-04,-0.030723682,-0.9853745,0.1676082,0.12814331,0.7362976,9.996231,0.060195923,-0.050338745,0.077697754
2023/4/28 15:25,11801,0.04060398,0.51304775,-0.617733,0.10592137,0.6482479,9.784628,3.06E-04,-0.03350717,-0.9848459,0.1701639,0.16165161,1.1738434,9.163055,0.16673279,-0.046081543,0.1043396
2023/4/28 15:25,11842,-0.04401876,0.75612986,-1.1992216,0.10950301,0.7030975,9.7808,8.33E-04,-0.03640286,-0.9841359,0.17363928,0.1006012,1.4581451,8.718933,0.035705566,0.039154053,0.117126465
2023/4/28 15:25,11881,-0.13641703,0.7464762,-0.42594433,0.08963852,0.69217014,9.781781,0.001862146,-0.035325475,-0.98352724,0.17726487,-0.03765869,1.4701233,9.51619,-0.10810852,0.06578064,0.14907837
2023/4/28 15:25,11921,0.08876824,0.820409,0.066334724,0.071993046,0.6713522,9.783378,0.002612811,-0.034346893,-0.9827636,0.18162923,0.16764832,1.4773102,9.944763,-0.004776001,0.045532227,0.20872498
2023/4/28 15:25,11962,0.49788278,0.9949579,-0.28701782,0.065163255,0.68587935,9.782418,0.003271862,-0.034996696,-0.98178375,0.18672228,0.5339508,1.6724243,9.535355,0.005874634,0.017837524,0.23855591
2023/4/28 15:25,12001,0.33880258,0.97738785,0.61424637,0.05523068,0.69366646,9.781931,0.004010328,-0.03527422,-0.98088014,0.19134746,0.42681885,1.6652527,10.445145,0.018661499,0.088150024,0.18635559
2023/4/28 15:25,12041,0.29048103,1.3421623,0.74560165,0.03899829,0.76355577,9.776802,0.005666654,-0.03859719,-0.97995,0.1953872,0.34420776,2.1081696,10.566055,0.31053162,0.010391235,0.20979309
2023/4/28 15:25,12081,0.36217678,1.528172,-0.10311127,0.058969364,0.9220459,9.763029,0.006472154,-0.04671355,-0.9786691,0.19995692,0.4621277,2.4469604,9.741257,0.39575195,-0.033294678,0.22151184
2023/4/28 15:25,12122,0.37334865,1.3189868,-0.63360405,0.026289893,1.030237,9.752349,0.009395053,-0.051771898,-0.9776988,0.20331383,0.42082214,2.2823486,9.267792,-0.06762695,0.2862854,0.09262085
2023/4/28 15:25,12161,1.2288033,0.1258936,1.6034193,-0.0909099,0.8853614,9.766179,0.01379114,-0.043280993,-0.9778162,0.20447972,1.1618347,0.8631897,11.71347,-0.6545868,0.4162445,-0.079956055
2023/4/28 15:25,12201,0.7816307,-1.0994538,3.4499197,-0.2498948,0.65518,9.781548,0.019739207,-0.02933761,-0.97944003,0.19861254,0.3573761,-0.5122833,13.406769,-0.28707886,0.3139801,-0.36437988
2023/4/28 15:25,12241,-0.06455591,-1.2567933,2.055665,-0.30123502,0.66124785,9.779694,0.021513725,-0.03116808,-0.98035437,0.19357435,-0.28845215,-0.5350189,11.707489,0.4234619,-0.11531067,-0.089538574
2023/4/28 15:25,12282,-0.24726059,-0.78708297,-1.1069126,-0.21144442,0.8963445,9.763311,0.018934328,-0.044729043,-0.98011607,0.19238849,-0.4375,0.15809631,8.530975,0.73558044,-0.34222412,0.0617218
2023/4/28 15:25,12321,-0.19087681,-0.78415215,-2.8354177,-0.0641153,1.1478342,9.739033,0.014570244,-0.056879267,-0.9793611,0.19340192,-0.28427124,0.3244934,7.007675,0.36380005,-0.2431488,0.05960083
2023/4/28 15:25,12361,-0.24742559,-1.8641808,-2.3438644,-0.04623408,1.1454598,9.739413,0.013631544,-0.056941252,-0.9794355,0.19307506,-0.28605652,-0.7127991,7.5631256,-0.33714294,0.13395691,-0.14494324
2023/4/28 15:25,12402,-0.43704733,-2.07137,0.10548782,-0.122367606,0.91827565,9.762795,0.014963787,-0.044855673,-0.9809978,0.18816862,-0.58833313,-1.1706848,10.002213,-0.63435364,0.15739441,-0.33454895
2023/4/28 15:25,12441,-1.1038983,-1.8248501,1.6138134,-0.2060234,0.703106,9.7792425,0.016868845,-0.033359323,-0.9825905,0.18198499,-1.3407135,-1.0761108,11.513565,-0.31051636,0.2554016,-0.16836548
2023/4/28 15:25,12481,-0.9006369,-0.87478167,1.448062,-0.3303369,0.6137277,9.781851,0.022245279,-0.027741086,-0.98284054,0.1809975,-1.1222382,-0.085510254,11.29509,-0.029281616,0.21492004,0.10220337
2023/4/28 15:25,12521,0.05542177,0.07319403,0.06938076,-0.3527389,0.648614,9.778817,0.023660645,-0.029546058,-0.9825643,0.18202925,-0.2609253,0.78956604,9.928604,0.10707092,-0.040740967,0.042556763
2023/4/28 15:25,12561,-0.06145811,-0.34004962,-0.39623642,-0.33872637,0.6832563,9.776953,0.023315016,-0.03138411,-0.98272437,0.18089853,-0.4189453,0.31192017,9.388107,0.10067749,-0.0236969,-0.038406372
2023/4/28 15:25,12601,0.17455521,-0.45706403,-1.0087719,-0.34402427,0.7122368,9.774699,0.023784986,-0.032608233,-0.9830016,0.17910573,-0.21064758,0.23890686,8.838043,0.033569336,0.08494568,-0.10018921
2023/4/28 15:25,12642,-0.19000608,-0.64652014,-1.0904427,-0.40585756,0.6928267,9.773723,0.027083872,-0.030685171,-0.98357224,0.17581388,-0.63142395,0.038391113,8.773987,-0.14007568,0.20639038,-0.17903137
2023/4/28 15:25,12681,-0.35268435,-0.64517456,-0.3586893,-0.4942097,0.591993,9.776282,0.030005373,-0.025456358,-0.98454654,0.17064515,-0.8792267,-0.04899597,9.494644,-0.25938416,0.14674377,-0.14387512
2023/4/28 15:25,12721,-0.33940023,-0.27963233,0.21391678,-0.5219053,0.49279594,9.780345,0.03045103,-0.020344753,-0.98530746,0.16681749,-0.8726349,0.22213745,10.0967865,-0.19332886,-0.02796936,-0.09913635
2023/4/28 15:25,12762,-0.23497283,0.22598761,-0.13612175,-0.50287145,0.4380501,9.783946,0.029181162,-0.018068032,-0.9856857,0.16506267,-0.7547302,0.678833,9.710724,-0.12408447,-0.06312561,-0.035217285
2023/4/28 15:25,12801,-0.024793774,0.61726373,0.10702038,-0.48368263,0.3896029,9.786963,0.027584441,-0.015583832,-0.98611414,0.16301876,-0.5099182,1.0158234,10.007614,-0.1347351,-0.045013428,-0.038406372
2023/4/28 15:25,12841,0.072751135,0.73763764,0.1384201,-0.47258046,0.35121262,9.788959,0.02667719,-0.013797132,-0.98649067,0.16104084,-0.3812256,1.0990143,9.889099,-0.08255005,-0.034362793,-0.115112305
2023/4/28 15:25,12882,-0.121090114,0.67550594,-0.11390495,-0.45967633,0.32324558,9.790536,0.025617588,-0.01242142,-0.98710304,0.1575341,-0.55599976,1.0008545,9.837616,-0.083602905,-0.05140686,-0.15238953
2023/4/28 15:25,12921,-0.1500018,0.7191156,-0.08389759,-0.4395334,0.31293833,9.791797,0.024609098,-0.01231859,-0.98769647,0.15394245,-0.6374054,1.0595093,9.751434,0.011199951,-0.0663147,-0.18328857
2023/4/28 15:25,12961,-0.35323423,0.8602661,-0.5104017,-0.41157722,0.3152431,9.792936,0.023168886,-0.012742996,-0.9883089,0.15015435,-0.7708893,1.1624603,9.35878,-0.050582886,-0.104660034,-0.18754578
2023/4/28 15:25,13002,-0.34357068,0.78826255,-0.3525486,-0.3735533,0.2823151,9.795465,0.020960642,-0.011441712,-0.988858,0.14693426,-0.7373657,1.0726776,9.51799,-0.1262207,-0.10040283,-0.15452576
2023/4/28 15:25,13041,-0.28773513,1.0906483,-0.05334854,-0.35182807,0.23684123,9.797474,0.019497568,-0.009362849,-0.9893024,0.14426692,-0.63142395,1.3091125,9.828049,-0.13580322,-0.08229065,-0.14706421
2023/4/28 15:25,13081,-0.13445392,1.4542751,0.35856152,-0.29451725,0.2076965,9.800025,0.016368324,-0.008355684,-0.9897368,0.14171563,-0.42791748,1.6963806,10.24942,-0.05911255,-0.22184753,-0.13108826
2023/4/28 15:25,13121,-0.11436571,1.6578925,0.36898708,-0.21137579,0.2282586,9.801715,0.012292385,-0.01002745,-0.9901592,0.13904361,-0.402771,1.8543854,10.206924,0.0932312,-0.200531,-0.17582703
2023/4/28 15:25,13161,-0.3988842,1.338408,0.24343967,-0.15477027,0.29502368,9.800989,0.0098666,-0.013829866,-0.9905492,0.13610145,-0.55122375,1.6161652,10.114151,0.10494995,-0.069503784,-0.1736908
2023/4/28 15:25,13201,-0.664247,0.34349573,0.918767,-0.1829357,0.26447406,9.801376,0.011552583,-0.011147971,-0.9909341,0.13338652,-0.9103546,0.4124756,11.011383,-0.3488617,0.230896,-0.1619873
2023/4/28 15:25,13241,-0.24880165,-0.8320989,3.9078875,-0.2576362,0.06226956,9.803068,0.01317141,-1.77E-04,-0.99135363,0.13055421,-0.46621704,-0.882782,14.229187,-0.5065155,-0.032226562,-0.22695923
2023/4/28 15:25,13282,-0.90365624,-2.081753,3.9819708,-0.22385737,-0.004335834,9.804094,0.011295414,0.001657884,-0.99196154,0.12602377,-1.0964966,-2.06073,14.088516,0.34249878,0.04447937,-0.122558594
2023/4/28 15:25,13321,-0.82661724,-1.850078,-1.1212149,-0.30976287,0.26698288,9.79812,0.017405143,-0.011488296,-0.9916099,0.1275733,-1.181488,-1.5818939,9.04274,1.014679,0.25326538,0.25453186
2023/4/28 15:25,13362,0.6870726,-0.80596143,-4.446249,-0.40887162,0.6474628,9.776708,0.025037536,-0.029996477,-0.9905074,0.13178936,0.27957153,-0.12081909,5.4203186,0.86660767,0.22982788,0.06278992
2023/4/28 15:25,13401,0.95376134,-0.51587534,-4.042329,-0.49677426,0.75062424,9.765252,0.030154865,-0.034660537,-0.9903381,0.1308425,0.45195007,0.22872925,5.960205,-0.5001221,0.2596588,-0.24720764
2023/4/28 15:25,13442,1.0409284,-1.6223943,1.8128939,-0.5368221,0.38426533,9.784403,0.029628564,-0.016013065,-0.99153835,0.12536928,0.48846436,-1.2401123,11.909195,-1.0934753,-0.059921265,-0.36012268
2023/4/28 15:25,13481,-0.037635595,-2.1255152,4.0801735,-0.49105012,0.11764623,9.793641,0.025581134,-0.002975861,-0.99255824,0.11901636,-0.5428314,-2.012848,13.916733,0.14755249,-0.073776245,-0.070373535
2023/4/28 15:25,13521,-0.08163881,-0.86003196,-0.8162632,-0.449205,0.32058093,9.79111,0.024711099,-0.013479693,-0.9923599,0.120123,-0.36447144,-0.37939453,8.814697,0.6716614,-0.22824097,0.3088684
2023/4/28 15:25,13561,0.45002112,0.082748055,-2.3957062,-0.35091138,0.51882875,9.786627,0.021067087,-0.024022533,-0.99165773,0.124876015,0.10240173,0.6429291,7.488907,0.26686096,-0.19094849,0.20767212
2023/4/28 15:25,13602,0.56592673,0.15243405,-1.7103624,-0.33027196,0.505977,9.788018,0.019980054,-0.023468627,-0.9914778,0.12657739,0.2490387,0.65071106,8.125763,-0.28919983,0.08175659,0.0105896
2023/4/28 15:25,13641,0.04776326,-0.23586911,-0.34669304,-0.37810224,0.36089706,9.79271,0.021631816,-0.014636273,-0.99183893,0.12479329,-0.3010254,0.13235474,9.602386,-0.47349548,0.14674377,-0.053329468
2023/4/28 15:25,13681,0.14022258,-0.24149117,0.86849403,-0.41057083,0.16216904,9.79671,0.021791492,-0.005652903,-0.9922717,0.12202486,-0.2429657,-0.07713318,10.710312,-0.38720703,0.002929688,-0.068237305
2023/4/28 15:25,13722,-0.35999,0.12519147,1.0859089,-0.40668046,0.07724212,9.79791,0.02105987,-0.001458669,-0.9927605,0.11824113,-0.7523346,0.19760132,11.0694275,-0.018630981,0.025299072,-0.02456665
2023/4/28 15:25,13761,-0.45163056,0.64941597,-0.29809475,-0.41867477,0.11401779,9.797046,0.021882854,-0.003293427,-0.9929782,0.11620914,-0.87324524,0.7368927,9.609573,0.10281372,-0.034362793,0.09048462
2023/4/28 15:25,13801,-0.47140223,0.6929771,-0.8406668,-0.40438014,0.15952657,9.79701,0.021428943,-0.005681967,-0.99297005,0.11627119,-0.87802124,0.8518219,9.066086,0.06340027,-0.022644043,0.21725464
2023/4/28 15:25,13841,-0.17767417,0.46553445,-0.77562237,-0.41169655,0.1620397,9.796665,0.0218258,-0.005723503,-0.9927334,0.11820014,-0.60987854,0.5663147,9.144501,-0.120895386,0.048736572,0.27052307
2023/4/28 15:25,13882,0.078014344,0.5063681,0.19893646,-0.42613134,0.10918124,9.796779,0.022246659,-0.002893949,-0.9923828,0.12113232,-0.3513031,0.6100006,10.084824,-0.14112854,0.015716553,0.31632996
2023/4/28 15:25,13921,0.40054592,0.73280627,-0.1911354,-0.4289382,0.10068757,9.796747,0.02240872,-0.002458618,-0.9919929,0.12426551,-0.029876709,0.86439514,9.611359,0.004806519,0.033813477,0.30993652
2023/4/28 15:25,13962,0.2730213,0.7835144,-0.22491932,-0.42968884,0.09821772,9.796739,0.022304183,-0.002128477,-0.9919444,0.12467702,-0.14300537,0.8661804,9.717911,-0.08041382,-0.011993408,0.29182434
2023/4/28 15:25,14001,0.71621877,1.3564894,-0.08561134,-0.43019873,0.088915095,9.796806,0.022328625,-0.001728009,-0.99166465,0.12688436,0.29812622,1.4868774,9.784943,-0.052719116,0.024230957,0.25559998
2023/4/28 15:25,14042,0.47341964,1.3503001,0.2811699,-0.4209906,0.08818545,9.797213,0.02185888,-0.001833995,-0.99223316,0.122442506,0.028182983,1.4497681,10.166229,-0.030349731,-0.026901245,0.16186523
2023/4/28 15:25,14081,0.2970088,1.3751401,0.21764469,-0.395829,0.12491823,9.797862,0.020805784,-0.003896728,-0.9925204,0.12022981,-0.10290527,1.4862823,10.116547,0.12199402,-0.083358765,0.23323059
2023/4/28 15:25,14121,0.6250538,1.540059,0.63238716,-0.3385475,0.2285693,9.798139,0.018537896,-0.0095022,-0.9925707,0.11987256,0.2885437,1.7741852,10.561859,0.30841064,-0.1643219,0.2801056
2023/4/28 15:25,14161,0.25606364,0.75407386,0.52872944,-0.2991871,0.38213643,9.794633,0.017468264,-0.01753673,-0.99260044,0.11887674,-0.08734131,1.097229,10.404449,0.23916626,0.090286255,0.11924744
2023/4/28 15:25,14201,0.3650041,-0.8919718,2.0956793,-0.32906225,0.33653295,9.795348,0.018626606,-0.0151419,-0.99321663,0.11377372,0.10418701,-0.76846313,12.337769,-0.41596985,0.006118774,-0.15878296
2023/4/28 15:25,14242,0.7782259,-1.868991,3.706894,-0.32438448,0.16490994,9.799896,0.017337238,-0.006616119,-0.99424016,0.10555634,0.43818665,-1.8518372,13.695282,-0.23381042,-0.045013428,-0.36012268
2023/4/28 15:25,14281,-0.9542975,-2.606666,2.475977,-0.3279858,0.13582408,9.800222,0.017621957,-0.005914011,-0.9950687,0.09743075,-1.1168518,-2.337265,12.149826,0.3563385,0.086013794,0.17144775
2023/4/28 15:25,14321,1.1218727,-0.15924284,-1.4111614,-0.34442195,0.380534,9.79321,0.019266784,-0.019988017,-0.99455893,0.10040828,0.84280396,0.44300842,8.077286,0.96461487,-0.10998535,0.2843628
2023/4/28 15:25,14362,0.5270701,-0.41588682,-3.4490633,-0.22849287,0.6769156,9.780592,0.014911765,-0.03326075,-0.99474144,0.09571213,0.33164978,0.3322754,6.4043274,0.1954956,-0.2154541,-0.29301453
2023/4/28 15:25,14401,-0.83841926,-1.7945974,-0.8394728,-0.26008585,0.5343306,9.788629,0.015512539,-0.026043184,-0.99599767,0.08408211,-1.0450287,-1.19104,8.963135,-0.5576477,0.19573975,-0.541214
2023/4/28 15:25,14441,-1.2513776,-2.1929612,1.1212511,-0.3480011,0.3354019,9.794733,0.018973134,-0.01573667,-0.9969201,0.07444918,-1.6016693,-1.8177185,11.095764,-0.20397949,0.12542725,-0.22589111
2023/4/28 15:25,14481,-0.40955302,-1.1159016,0.5510464,-0.36508572,0.33898905,9.793987,0.019791244,-0.015935354,-0.99719644,0.07038226,-0.7230072,-0.75289917,10.457123,0.17845154,-0.05140686,-0.030960083
2023/4/28 15:25,14522,-0.23686832,-0.7436978,-0.33127594,-0.36679313,0.41160533,9.791141,0.020074185,-0.0196927,-0.9973551,0.06702213,-0.64100647,-0.33390808,9.53894,0.24235535,0.03062439,-0.089538574
2023/4/28 15:25,14561,-0.17633253,-0.7784264,-1.1028252,-0.3642559,0.4890586,9.787672,0.020136677,-0.023709113,-0.9974743,0.06385455,-0.4889679,-0.26986694,8.797943,0.16246033,-0.038619995,-0.02456665
2023/4/28 15:25,14601,-0.19877112,-0.6780175,-1.1920481,-0.37034145,0.50430137,9.786671,0.020505697,-0.024272023,-0.99768144,0.06018461,-0.67152405,-0.2058258,8.830856,-0.0793457,0.033813477,-0.10871887
2023/4/28 15:25,14642,-0.55505145,-0.86585075,-0.3309431,-0.39443395,0.43444046,9.789079,0.021334145,-0.02099348,-0.99796957,0.056221858,-0.9426727,-0.4159088,9.664032,-0.2007904,0.066848755,-0.091674805
2023/4/28 15:25,14681,-0.29172495,-0.69627607,0.2975769,-0.43134457,0.34902957,9.79094,0.022888841,-0.016646089,-0.99827313,0.051475383,-0.74035645,-0.32313538,10.200333,-0.10491943,0.04660034,-0.037338257
2023/4/28 15:25,14721,0.108235866,-0.038059473,-0.368495,-0.44005552,0.33443865,9.791062,0.023222247,-0.015984906,-0.99849844,0.046968795,-0.33633423,0.2927704,9.542526,-0.010101318,-0.003463745,-0.02029419
2023/4/28 15:25,14762,-0.121629775,0.07903445,-0.40627956,-0.44171995,0.30756047,9.791868,0.023157805,-0.014744503,-0.99877244,0.041230846,-0.5781555,0.38075256,9.51619,-0.11343384,0.02104187,-0.09700012
2023/4/28 15:25,14801,-0.7046436,-0.041818425,-0.38303757,-0.46438357,0.24250853,9.792647,0.024107005,-0.011525694,-0.9990208,0.035262946,-1.1503601,0.21017456,9.503632,-0.21676636,0.03276062,-0.07249451
2023/4/28 15:25,14841,-0.35723525,0.21453191,0.5291004,-0.46426404,0.15259656,9.794466,0.023903957,-0.00705901,-0.999227,0.030401086,-0.80918884,0.37716675,10.457123,-0.21037292,-0.02796936,0.006332398
2023/4/28 15:25,14882,0.3705164,0.7775495,0.23709583,-0.46893358,0.11574707,9.794748,0.024060857,-0.005282892,-0.9993623,0.025848392,-0.08554077,0.96255493,10.10817,-0.005844116,0.03488159,-0.037338257
2023/4/28 15:25,14921,0.5295745,0.98863804,-0.2687235,-0.46295077,0.11507484,9.795041,0.02371795,-0.005420159,-0.99952424,0.018956268,0.05331421,1.0954285,9.629929,-0.06762695,-0.040740967,-0.19393921
2023/4/28 15:25,14961,-0.22884029,0.64668953,-0.13047886,-0.4535123,0.08507664,9.795789,0.02316152,-0.003924013,-0.999691,0.008124361,-0.7487335,0.70098877,9.777756,-0.0942688,-0.009857178,-0.29833984
2023/4/28 15:25,15002,-0.7173196,0.44616607,-0.35438538,-0.44806978,0.053090584,9.796265,-0.022764927,0.002531026,0.9997366,0.001446314,-1.2006378,0.45677185,9.559891,-0.09106445,-0.053527832,-0.15452576
2023/4/28 15:25,15041,0.081439555,1.359115,-0.2545185,-0.42315516,0.013891254,9.797506,-0.021573422,8.85E-04,0.99973345,0.008178401,-0.30821228,1.3420258,9.637695,-0.1262207,-0.06417847,-0.10446167
2023/4/28 15:25,15081,0.19567928,1.7617205,0.2542143,-0.3700668,-0.013726348,9.799656,-0.018880023,-4.11E-04,0.9997046,0.015301638,-0.17892456,1.7592163,10.14827,-0.04951477,-0.1962738,-0.18115234
2023/4/28 15:25,15122,-0.24631548,1.6270729,0.29652596,-0.2823377,0.032148696,9.802532,-0.014353476,0.001982619,0.9996099,0.023877041,-0.5679779,1.670044,10.19136,0.20188904,-0.22503662,-0.23442078
2023/4/28 15:25,15161,-0.64480776,1.4854542,-0.19668293,-0.21323244,0.13935801,9.803341,-0.010634758,0.00745735,0.9993817,0.03267197,-0.83374023,1.6047974,9.723892,0.24023438,-0.17604065,-0.2131195
2023/4/28 15:25,15201,-0.2451299,1.5440856,0.19543743,-0.17012452,0.24889463,9.802015,-0.008150836,0.013034391,0.9990521,0.040724996,-0.33932495,1.7759857,10.054886,0.2189331,-0.02583313,-0.20991516
2023/4/28 15:25,15241,-0.05749072,1.1701483,1.190177,-0.19547585,0.26193342,9.801202,-0.009296398,0.013832505,0.9986422,0.04935621,-0.33154297,1.3037262,11.387268,-0.29986572,0.10305786,-0.3505249
2023/4/28 15:25,15282,-0.96744114,-0.76287043,4.9703035,-0.20765583,0.12481611,9.803657,-0.009725413,0.006708897,0.9980805,0.060792338,-1.2425385,-0.9121094,15.135391,-0.099594116,-0.20906067,-0.41444397
2023/4/28 15:25,15321,-1.049036,-2.4014704,3.4930534,-0.11463887,0.22995138,9.803284,-0.005031493,0.012096911,0.99758214,0.068251185,-1.2078247,-2.2432861,13.137421,0.6599426,-0.19415283,-0.16731262
2023/4/28 15:25,15361,-1.1917961,-3.0340328,-0.1413765,-0.12267351,0.47396627,9.794422,-0.005115891,0.02633887,0.99723274,0.069332205,-1.1862793,-2.4827118,9.550308,0.7696686,0.24580383,0.25880432
2023/4/28 15:25,15401,-0.6318563,-2.4623806,-3.6591854,-0.2761208,0.81791246,9.76858,-0.011478161,0.04253548,0.99710906,0.0619075,-0.92770386,-1.6447296,6.422287,0.83358765,0.44181824,0.49742126
2023/4/28 15:25,15442,0.47593573,-0.80838454,-4.898407,-0.29948723,1.0272024,9.748105,-0.012611362,0.053159464,0.9972202,0.050664432,0.25682068,0.31072998,4.978592,0.24235535,-0.23782349,0.5410919
2023/4/28 15:25,15481,3.5203323,0.3744051,-0.7924595,-0.22358178,0.8414162,9.767928,-0.009650597,0.043372188,0.9981818,0.040727638,3.2711182,1.176239,9.291733,-1.1073303,0.23622131,0.1512146
2023/4/28 15:25,15521,0.54638934,-0.7336675,2.3700476,-0.25009534,0.4974653,9.790831,-0.011715542,0.025870997,0.9987721,0.04059208,0.20236206,-0.31115723,12.283295,-0.5565796,-0.053527832,-0.24507141
2023/4/28 15:25,15561,-1.1361567,-1.6793133,1.3481398,-0.2052932,0.4547248,9.793951,-0.009486059,0.023611743,0.9987922,0.042031545,-1.3891907,-1.1341705,10.969482,0.29455566,-0.09187317,0.093688965
2023/4/28 15:25,15602,-0.9605736,-0.9018846,-0.81492615,-0.19459759,0.5505196,9.789252,-0.008874056,0.028431136,0.99886376,0.037203636,-1.1078644,-0.25250244,9.012817,0.15820312,0.001861572,0.32484436
2023/4/28 15:25,15641,0.29582173,-0.04635924,-0.559742,-0.19065398,0.5635,9.78859,-0.008880529,0.029015804,0.9991121,0.029225571,0.2197113,0.62916565,9.5078125,-0.05697632,-0.003463745,0.41326904
2023/4/28 15:25,15681,0.59469736,0.067320526,-0.27287197,-0.17555161,0.5527663,9.789485,-0.008303972,0.028390288,0.9993439,0.020902244,0.3855133,0.595047,9.576645,-0.001586914,0.006118774,0.3173828
2023/4/28 15:25,15721,-0.07033837,-0.50544673,-0.73376465,-0.1735448,0.5383072,9.790326,-0.008439235,0.027262392,0.999484,0.014739654,-0.29862976,-0.003509522,9.207352,-0.12728882,0.005065918,0.2992859
2023/4/28 15:25,15762,0.18233025,-0.3050907,-0.011754036,-0.1627428,0.46734986,9.794156,-0.008112139,0.023900468,0.9996504,0.007877248,-0.002349854,0.14074707,9.867538,-0.16670227,-0.017318726,0.3557434
2023/4/28 15:25,15801,0.28337866,0.043676168,0.09413719,-0.15345351,0.40658924,9.797016,-0.007797361,0.020746114,0.9997534,0.001374388,0.13951111,0.45378113,9.977676,-0.16456604,-0.007720947,0.31951904
2023/4/28 15:25,15841,0.14306684,0.23311439,0.47069073,-0.13126126,0.3676783,9.798876,0.006776091,-0.018720508,-0.99979216,0.004392023,-0.002349854,0.56152344,10.427185,-0.017562866,-0.050338745,0.34828186
2023/4/28 15:25,15881,-0.27432957,0.40430903,-0.19145393,-0.10501801,0.38948643,9.798349,0.005548899,-0.019809343,-0.9997409,0.009744509,-0.43389893,0.8224945,9.629318,0.076187134,-0.040740967,0.3631897
2023/4/28 15:25,15922,-0.5667355,0.43573454,-0.60410595,-0.0920329,0.41687483,9.797354,0.005030854,-0.02118244,-0.99963665,0.01589307,-0.6338196,0.8715668,9.221115,0.011199951,-0.00453186,0.48677063
2023/4/28 15:25,15961,-0.6077181,0.54259074,-0.15878963,-0.09653795,0.40726566,9.797713,0.005409155,-0.02064827,-0.99949694,0.023458028,-0.7170105,0.94400024,9.789139,-0.07827759,0.04234314,0.5623932
2023/4/28 15:25,16001,-0.7749086,0.59767234,-0.019165993,-0.12681156,0.40130207,9.797615,0.007403267,-0.020297043,-0.99918413,0.034121744,-0.9516449,1.0230103,9.865753,0.003738403,0.10838318,0.7030182
2023/4/28 15:25,16042,-0.561074,0.7654554,0.008229256,-0.16159287,0.40823653,9.796817,0.009180488,-0.020422636,-0.99871224,0.045524146,-0.73197937,1.1624603,9.885498,-0.03567505,0.09880066,0.84895325
2023/4/28 15:25,16081,-0.4691886,0.7114731,0.4084854,-0.19024986,0.4126783,9.796116,0.010923899,-0.020439187,-0.9980002,0.058809083,-0.6439972,1.1313477,10.315262,0.02078247,0.088150024,0.97146606
2023/4/28 15:25,16121,-0.4519682,0.8033254,0.07660675,-0.20216714,0.47611132,9.792999,0.012089857,-0.023448654,-0.99687976,0.074395664,-0.66015625,1.3013306,9.99205,0.21253967,0.059387207,1.1291199
2023/4/28 15:25,16162,-0.28382257,0.8566835,-0.46460152,-0.19418937,0.58884454,9.787029,0.012743609,-0.0289481,-0.9948837,0.095947824,-0.5063324,1.4204407,9.4210205,0.24662781,0.019973755,1.3123474
2023/4/28 15:25,16201,0.04051119,1.0631831,-0.49295616,-0.17079693,0.70950615,9.779459,0.013010708,-0.0348868,-0.99203235,0.12035564,-0.12385559,1.8088989,9.388107,0.29136658,0.045532227,1.4401703
2023/4/28 15:25,16242,-0.04219666,0.92888755,-0.2069149,-0.14558275,0.8526222,9.76843,0.013729841,-0.041954353,-0.9882279,0.146482,-0.20704651,1.7981262,9.715515,0.36486816,0.049804688,1.5413818
2023/4/28 15:25,16281,0.43188798,0.93285596,-0.411129,-0.1319875,1.0220914,9.752348,0.015755044,-0.050203655,-0.9832465,0.17452121,0.2993164,1.959137,9.194778,0.2732544,0.3086548,1.5839844
2023/4/28 15:25,16321,0.16459553,-0.6403261,1.031682,-0.24632855,0.92447805,9.75987,0.022189025,-0.041123144,-0.9777487,0.20450917,-0.119659424,0.23950195,11.09996,-0.95925903,0.44075012,1.3762665
2023/4/28 15:25,16361,-0.907161,-3.4728892,5.9457912,-0.33339074,0.57514644,9.784091,0.023506083,-0.023768106,-0.97386706,0.2246453,-1.2904205,-2.9908752,15.775833,-0.354187,0.26924133,1.2686768
2023/4/28 15:25,16402,-1.1711098,-2.7468853,0.21482849,-0.4465698,0.6951849,9.771779,0.030855482,-0.028737297,-0.9680678,0.24711701,-1.6381836,-2.1026306,10.351776,0.76753235,0.20532227,1.5136871
2023/4/28 15:25,16441,-0.14101484,-1.0956509,-2.7397099,-0.43481734,0.9609096,9.749768,0.034830928,-0.04107304,-0.9600984,0.2744283,-0.600296,-0.17349243,7.18425,0.41281128,0.017837524,1.6532288
2023/4/28 15:25,16482,-0.13489145,-0.791435,-1.567379,-0.38806424,1.0303566,9.744648,0.034800228,-0.044160955,-0.951676,0.30191314,-0.55540466,0.22633362,8.3376465,-0.029281616,0.17230225,1.495575
2023/4/28 15:25,16521,-1.3325571,-1.7993898,-1.5656033,-0.43167314,0.98194456,9.747811,0.03717371,-0.04022497,-0.94403327,0.325271,-1.8243408,-0.84747314,8.312515,-0.2977295,0.26605225,1.1355133
2023/4/28 15:25,16561,-2.0792813,-2.3914015,-0.013886452,-0.53143364,0.8189574,9.757935,0.039838754,-0.02994512,-0.93799186,0.34305602,-2.5713196,-1.5184479,9.916626,-0.4521942,0.34913635,1.0811768
2023/4/28 15:25,16602,-1.4138767,-1.6429409,0.3840456,-0.6659165,0.68705195,9.759862,0.044345453,-0.02047006,-0.9317351,0.359839,-2.101471,-0.97795105,10.28833,-0.28814697,0.42051697,1.0939636
2023/4/28 15:25,16641,0.1281215,-0.39285856,0.74953365,-0.78396297,0.61399,9.755962,0.048900638,-0.013895164,-0.9246401,0.37743378,-0.5254822,0.33647156,10.66362,-0.17948914,0.29481506,1.1578827
2023/4/28 15:25,16682,-0.61160856,-0.33758897,0.26974106,-0.84387773,0.6193585,9.750624,0.052067123,-0.012066238,-0.9176228,0.3938423,-1.4526367,0.2855835,10.086609,0.027175903,0.15739441,1.1024933
2023/4/28 15:25,16721,-0.82816637,-0.7876182,-0.1811657,-0.8724162,0.6651117,9.745096,0.05456652,-0.01268319,-0.91043097,0.40985003,-1.6728973,-0.07234192,9.679001,0.021850586,0.16271973,1.1578827
2023/4/28 15:25,16762,-0.897784,-0.9915041,-0.75114155,-0.9314619,0.6812979,9.738511,0.057866156,-0.01120852,-0.9031017,0.4253625,-1.770462,-0.33390808,9.134323,-0.16349792,0.21810913,1.2516327
2023/4/28 15:25,16802,-0.4738518,-0.878309,-0.033068657,-0.99215287,0.6211184,9.736541,0.059462722,-0.006225267,-0.8966417,0.43870163,-1.4664001,-0.23814392,9.844803,-0.31263733,0.21385193,1.2686768
2023/4/28 15:25,16841,-0.055226922,-0.6663275,0.63471794,-1.0357083,0.5586818,9.735788,0.06008832,-0.001533641,-0.8903327,0.4513255,-1.1156464,-0.09269714,10.4655,-0.19332886,0.14460754,1.2516327
2023/4/28 15:25,16881,0.047761798,-0.4703523,0.19129467,-1.0539193,0.5688293,9.733246,0.06117175,-7.72E-04,-0.88426673,0.46295765,-1.0408325,0.10722351,10.016586,-0.015426636,0.08708191,1.1813202
2023/4/28 15:25,16922,-0.07654035,-0.6276807,-0.25628185,-1.0406926,0.6025226,9.732641,0.061398167,-0.001910777,-0.8789242,0.47298932,-1.1000824,-0.011291504,9.566483,-0.046325684,-0.01411438,1.1035614
2023/4/28 15:25,16961,0.21521473,-0.38657665,-0.31376743,-1.0138226,0.6052289,9.73531,0.06027345,-0.002115939,-0.8744961,0.48126835,-0.8103943,0.27720642,9.541336,-0.145401,0.024230957,1.0151367
2023/4/28 15:25,17001,0.15863693,-0.054475248,0.27589703,-0.99353206,0.56812876,9.739636,0.058450766,-5.24E-04,-0.87101835,0.48776045,-0.86724854,0.5513458,10.282944,-0.2050476,-0.01411438,0.8798523
2023/4/28 15:25,17042,-0.05582857,-0.0123595,0.4124546,-0.9575035,0.55581826,9.743954,0.05653666,-4.67E-04,-0.8675782,0.4940763,-1.0162964,0.5417633,10.196747,-0.034606934,-0.0471344,0.8287201
2023/4/28 15:25,17081,0.28549922,0.05314654,0.24462795,-0.9126805,0.5840734,9.746603,0.055072762,-0.003009449,-0.8652119,0.49836364,-0.5751648,0.7351074,10.092606,0.031433105,-0.095077515,0.80314636
2023/4/28 15:25,17122,0.45705938,0.09871662,0.09439373,-0.85172385,0.6326342,9.749088,0.053817794,-0.0062024,-0.86449564,0.49971244,-0.41773987,0.7536621,9.971695,0.090026855,-0.10998535,0.6859741
2023/4/28 15:25,17161,0.72597015,0.47807097,-0.46229458,-0.763572,0.6909409,9.752433,0.051443394,-0.010857822,-0.86287606,0.50267345,-0.033477783,1.1894073,9.433594,0.004806519,-0.19415283,0.57199097
2023/4/28 15:25,17202,0.56990343,0.7936239,-0.12969208,-0.68874925,0.70127106,9.757265,0.048384618,-0.013298273,-0.8636405,0.5016046,-0.13761902,1.5215912,9.725098,-0.019699097,-0.10572815,0.36213684
2023/4/28 15:25,17241,0.13393718,1.209394,-0.07357025,-0.64727414,0.70398813,9.759909,0.046563376,-0.014662419,-0.8656495,0.4982648,-0.5296631,1.9136505,9.844208,-0.064437866,-0.108932495,0.19274902
2023/4/28 15:25,17282,-0.1912905,1.2101958,0.88147354,-0.5919403,0.7331077,9.761278,0.04483628,-0.01740824,-0.86622435,0.4973349,-0.8020172,1.935791,10.774948,0.22531128,-0.1643219,0.124572754
2023/4/28 15:25,17321,-0.60359365,0.74383765,-0.003350258,-0.52499753,0.88960457,9.752096,0.045830544,-0.026097298,-0.8666041,0.4962014,-1.1246338,1.6341248,9.863358,0.46820068,-0.11425781,0.19488525
2023/4/28 15:25,17361,-1.0582166,0.24786484,-0.057444572,-0.5533683,1.0152628,9.738245,0.05091798,-0.030553853,-0.8665111,0.49561304,-1.7788391,1.1720428,9.83403,-0.007980347,0.2852173,0.12350464
2023/4/28 15:25,17401,-1.0971797,-2.0258083,3.3917866,-0.6318995,0.87742156,9.746857,0.049513284,-0.021822339,-0.8669026,0.49553218,-1.6908569,-1.2209625,13.445679,-0.49160767,-0.02796936,0.25453186
2023/4/28 15:25,17442,-0.71951604,-3.4388733,2.508974,-0.63430953,0.8757009,9.746855,0.050316773,-0.022735784,-0.86673146,0.49570948,-1.3502808,-2.5820618,12.6262665,0.56300354,0.17550659,0.30247498
2023/4/28 15:25,17481,-0.23398715,-3.6043816,-1.4867268,-0.7154846,1.0720307,9.721585,0.059047874,-0.029162528,-0.8641748,0.49886352,-0.9827728,-2.5497437,8.522003,0.39042664,0.27137756,0.605011
2023/4/28 15:25,17521,0.9037201,-2.864274,-1.5982294,-0.778914,1.1463463,9.708222,0.06398202,-0.030409705,-0.86048925,0.50451934,0.102996826,-1.721344,8.289764,0.1795044,0.17230225,0.59436035
2023/4/28 15:25,17562,2.258965,-1.0456195,-2.4807997,-0.8010551,1.174932,9.703001,0.06588895,-0.030712718,-0.8573753,0.5095321,1.4527283,0.18203735,7.394333,-0.20930481,0.23303223,0.42285156
2023/4/28 15:25,17601,1.3361006,-0.9871343,1.2883806,-0.865017,0.950779,9.722045,0.06283257,-0.019124532,-0.8573254,0.5105678,0.38311768,-0.062164307,11.141266,-0.6641846,0.06578064,0.05960083
2023/4/28 15:25,17642,0.5932885,-1.9069487,2.797576,-0.82881474,0.8016872,9.738622,0.057272367,-0.013724644,-0.85950774,0.5077183,-0.31837463,-1.1461487,12.520325,0.12411499,-0.23782349,0.08622742
2023/4/28 15:25,17682,0.5918845,-1.7254779,-0.5223255,-0.7327138,0.91880494,9.73598,0.05608454,-0.021393394,-0.8596366,0.5073675,-0.14959717,-0.7852173,9.467117,0.51293945,-0.2665863,0.24815369
2023/4/28 15:25,17722,0.5245515,-1.7078487,-1.1675768,-0.61259866,1.0774505,9.728012,0.05486854,-0.03217116,-0.85949135,0.5071776,-0.038253784,-0.5290375,8.641113,0.24874878,-0.12063599,0.31100464
2023/4/28 15:25,17761,0.32162303,-1.2824899,-1.5539885,-0.594362,1.092509,9.727463,0.054526538,-0.032622933,-0.8593531,0.50741976,-0.30880737,-0.17230225,8.413666,-0.13368225,0.055130005,0.15759277
2023/4/28 15:25,17802,0.5465962,-0.97568643,0.5660038,-0.594179,0.9788962,9.739564,0.051519964,-0.027679432,-0.86019397,0.50660235,-0.046035767,0.032409668,10.480469,-0.25938416,-0.053527832,0.12670898
2023/4/28 15:25,17841,0.9608222,-0.60229594,0.5943508,-0.5264681,0.9502265,9.746296,0.04774728,-0.028238209,-0.86108774,0.50542134,0.4262085,0.40170288,10.409241,0.115600586,-0.16539001,0.11817932
2023/4/28 15:25,17882,0.6674499,-0.6616436,-0.8547354,-0.475463,1.0022904,9.743703,0.04674473,-0.03231811,-0.8624438,0.5029524,0.11077881,0.34544373,8.88533,0.13583374,-0.0663147,0.02444458
2023/4/28 15:25,17921,0.23775974,-0.7979437,-0.9694166,-0.47029257,0.99173546,9.745033,0.04615501,-0.031800993,-0.86412203,0.50015146,-0.25971985,0.2119751,8.872757,-0.14859009,0.060455322,0.011657715
2023/4/28 15:25,17961,0.3331601,-0.40592486,-0.30821037,-0.49921444,0.9086268,9.751696,0.045168735,-0.027598577,-0.86663973,0.4961186,-0.17292786,0.52441406,9.562286,-0.24127197,0.08708191,0.01272583
2023/4/28 15:25,18002,0.47278267,-0.23389953,0.17068005,-0.5198517,0.8081814,9.759457,0.04338835,-0.022883957,-0.86981165,0.49093935,-0.007736206,0.59025574,10.106369,-0.24871826,0.05619812,-0.003250122
2023/4/28 15:25,18041,0.3715145,-0.006183565,0.2522354,-0.53880805,0.7378416,9.763998,0.042346656,-0.019529466,-0.8727961,0.4858521,-0.119659424,0.8135071,10.047714,-0.07722473,0.038085938,0.021240234
2023/4/28 15:25,18081,0.7192399,0.3475935,-0.425663,-0.5433451,0.71993333,9.765084,0.042004988,-0.018838283,-0.87535733,0.48127985,0.24066162,1.112793,9.429413,-0.08467102,0.019973755,-0.013916016
2023/4/28 15:25,18122,0.34091347,0.16550034,-0.1914196,-0.56320983,0.6749297,9.767172,0.04167118,-0.016623203,-0.87869465,0.47527134,-0.32077026,0.8224945,9.659851,-0.11450195,0.09240723,-0.08634949
2023/4/28 15:25,18161,0.13457388,0.008194804,-0.007297516,-0.604115,0.6285008,9.767825,0.042296566,-0.013802053,-0.88157314,0.46994612,-0.508728,0.6255646,9.853775,-0.118759155,0.102005005,0.005264282
2023/4/28 15:25,18202,0.3174234,0.3544925,0.09341335,-0.63866425,0.60173684,9.767313,0.043154202,-0.01197243,-0.88378316,0.46574858,-0.3106079,0.93800354,9.990845,-0.051651,0.090286255,0.03189087
2023/4/28 15:25,18241,0.8395486,0.77024883,0.16312695,-0.64649767,0.58950067,9.767544,0.043172676,-0.011400699,-0.8855846,0.46232682,0.1981659,1.3737488,10.035141,-0.046325684,0.023162842,0.05532837
2023/4/28 15:25,18281,0.6305334,0.96648383,0.35838604,-0.644959,0.60565674,9.766658,0.04343239,-0.012356968,-0.88756365,0.45846665,-0.04244995,1.5904236,10.233856,0.11239624,0.006118774,0.04574585
2023/4/28 15:25,18322,0.91149455,1.2438326,0.2624731,-0.62223846,0.68691784,9.762753,0.044246215,-0.016744958,-0.8892216,0.45502394,0.28614807,1.9645233,10.103378,0.23490906,-0.048202515,0.04788208
2023/4/28 15:25,18361,0.9468557,1.1888549,-0.25385094,-0.61069757,0.78260845,9.756278,0.045859907,-0.021567002,-0.89106816,0.45103136,0.3358307,1.8693542,9.545532,0.10707092,0.05619812,-0.03414917
2023/4/28 15:25,18401,0.9924697,-0.17619723,1.16679,-0.63106805,0.7398749,9.758316,0.045444,-0.018526318,-0.8946731,0.44401762,0.25862122,0.45617676,11.194534,-0.35205078,0.10626221,-0.26637268
2023/4/28 15:25,18442,-0.2530427,-2.1224794,3.426156,-0.68714195,0.5378666,9.767749,0.043527503,-0.009421131,-0.8991246,0.4354211,-1.0180817,-1.6596985,13.394211,-0.3957367,0.13502502,-0.29833984
2023/4/28 15:25,18481,-0.17464393,-1.6995988,1.6682987,-0.73558843,0.5000367,9.766231,0.04487069,-0.00688802,-0.9018067,0.42974856,-0.96720886,-1.2245483,11.680557,0.2593994,0.07749939,0.02444458
2023/4/28 15:25,18522,-0.021074831,-0.7219547,0.49530792,-0.7415366,0.6005371,9.760116,0.047333065,-0.011496035,-0.9026287,0.42765498,-0.77207947,-0.11843872,10.449936,0.33503723,-0.046081543,0.040420532
2023/4/28 15:25,18561,0.13431221,-1.0638266,-1.1437511,-0.7118321,0.7901197,9.748815,0.050096236,-0.0209557,-0.9028693,0.42647186,-0.59910583,-0.23574829,8.878738,0.6237335,-0.06845093,0.08409119
2023/4/28 15:25,18602,-0.13605762,-2.0647292,-2.635293,-0.71021837,0.93096215,9.736492,0.052992877,-0.027727228,-0.904385,0.42250532,-0.88401794,-1.1790619,7.291382,-0.032470703,0.06896973,-0.2589264
2023/4/28 15:25,18641,-0.7432668,-3.164256,-0.549222,-0.7526987,0.80198675,9.744775,0.051993392,-0.0212466,-0.9078811,0.41544816,-1.472992,-2.3354645,9.372543,-0.29026794,0.022109985,-0.19607544
2023/4/28 15:25,18681,-0.19690329,-2.3888316,0.7551174,-0.7823771,0.6582436,9.753204,0.050236925,-0.014186108,-0.9101151,0.41105404,-1.4119263,-1.8416595,10.656433,-0.2796173,0.066848755,-0.05970764
2023/4/28 15:25,18722,-0.29358613,-1.777638,0.702652,-0.77748775,0.6121321,9.7565975,0.04901795,-0.012215423,-0.91080666,0.40973073,-1.0587921,-0.98991394,10.4361725,0.18910217,-0.108932495,0.16079712
2023/4/28 15:25,18761,0.18575883,-1.085225,-0.6960907,-0.7219257,0.69239616,9.755502,0.04789623,-0.01760384,-0.9101255,0.41117832,-0.51290894,-0.33390808,9.204346,0.17631531,-0.16644287,0.22044373
2023/4/28 15:25,18801,0.83609915,-0.51122284,-0.61456776,-0.6512939,0.7478031,9.756382,0.046028197,-0.021079764,-0.9099518,0.41161242,0.20355225,0.30892944,9.215729,0.09535217,-0.116378784,0.070251465
2023/4/28 15:25,18842,0.47352475,-0.44905776,-0.4738655,-0.6285616,0.7522401,9.757532,0.045000464,-0.021892527,-0.91115147,0.40902162,-0.2711029,0.28918457,9.440781,-0.03567505,-0.008789063,-0.15238953
2023/4/28 15:25,18882,-0.5013335,-0.8147128,-0.4148445,-0.644402,0.72059935,9.758886,0.044958197,-0.020347442,-0.9135335,0.40375888,-1.1312103,-0.06636047,9.487473,-0.06336975,0.057250977,-0.17582703
2023/4/28 15:25,18921,-0.46663737,-0.8038654,0.11398792,-0.6850632,0.65009403,9.761068,0.04531623,-0.016445953,-0.9156243,0.39913416,-1.1784973,-0.15315247,9.923813,-0.23062134,0.08921814,-0.10871887
2023/4/28 15:25,18962,0.07426292,-0.48962706,0.9005642,-0.71896946,0.5828878,9.762874,0.045462526,-0.012849646,-0.9177649,0.394304,-0.6380005,0.10902405,10.771957,-0.015426636,0.066848755,-0.112976074
2023/4/28 15:25,19001,0.29646266,-0.26776093,0.17967224,-0.7426951,0.6153097,9.759109,0.047151666,-0.014167046,-0.9199469,0.3889392,-0.4530487,0.36219788,10.0494995,0.15287781,0.05192566,-0.13108826
2023/4/28 15:25,19041,0.2625625,-0.24799448,-0.64685345,-0.7626918,0.6586499,9.754735,0.048861735,-0.016106876,-0.92219484,0.38328817,-0.54045105,0.3789673,9.195969,0.052749634,0.025299072,-0.16091919
2023/4/28 15:25,19082,0.33115125,-0.23374039,-0.37362003,-0.7673305,0.6440853,9.755344,0.048585664,-0.015483416,-0.9248392,0.37692466,-0.4883728,0.42564392,9.524582,-0.062301636,-0.01411438,-0.19607544
2023/4/28 15:25,19121,0.26908755,-0.21842474,-0.20980072,-0.7523004,0.6113394,9.758621,0.047239304,-0.014738491,-0.92753917,0.37043533,-0.5069275,0.46336365,9.650864,-0.036743164,-0.046081543,-0.22802734
2023/4/28 15:25,19161,0.115915954,0.13481444,-0.42413616,-0.7357001,0.5914468,9.761113,0.045800086,-0.014337421,-0.9303466,0.3635271,-0.6254425,0.71295166,9.45813,-0.054840088,-0.05885315,-0.24188232
2023/4/28 15:25,19202,0.07372397,0.58077526,-0.15796852,-0.71187776,0.54544973,9.765557,0.0438746,-0.013045741,-0.9332229,0.35637045,-0.6230469,1.1349335,9.686188,-0.13793945,-0.0897522,-0.30578613
2023/4/28 15:25,19241,-0.3671245,0.5739191,0.4003172,-0.68619126,0.5079903,9.769416,0.04186506,-0.012073427,-0.9362355,0.3486613,-1.0498047,1.0768738,10.294907,-0.012237549,-0.09082031,-0.28874207
2023/4/28 15:25,19282,-0.25396353,0.7041901,0.039590836,-0.6485281,0.5293667,9.770853,0.04034635,-0.014046921,-0.93867147,0.34215596,-0.90556335,1.251648,9.939377,0.09642029,-0.1451416,-0.21098328
2023/4/28 15:25,19321,0.21692044,1.101118,-0.16440201,-0.59448624,0.59163755,9.770719,0.038728595,-0.018223735,-0.9408246,0.33618003,-0.41235352,1.7221069,9.712524,0.20933533,-0.16539001,-0.23867798
2023/4/28 15:25,19362,0.09720302,1.314806,-0.40526867,-0.53725326,0.6855294,9.767896,0.037423495,-0.02398719,-0.9431242,0.32945544,-0.44528198,1.9980469,9.462326,0.23170471,-0.16751099,-0.28022766
2023/4/28 15:25,19401,-0.5272319,0.97097284,-0.18593502,-0.47924155,0.78825605,9.763163,0.036120873,-0.03020713,-0.9456199,0.32184765,-1.0611877,1.7448578,9.720306,0.29455566,-0.19415283,-0.3153839
2023/4/28 15:25,19441,-1.064593,0.5404488,0.018313408,-0.42487732,0.9293638,9.753264,0.035807442,-0.039095577,-0.94766647,0.31482944,-1.4598236,1.4515686,9.834625,0.38616943,-0.06845093,-0.12576294
2023/4/28 15:25,19482,-0.6388601,-0.22622168,0.7999048,-0.476744,0.9741491,9.746494,0.038832087,-0.038993303,-0.9482822,0.31262204,-1.11026,0.76382446,10.949722,-0.19972229,0.13821411,-0.019241333
2023/4/28 15:25,19521,-0.13271359,-2.0508428,5.5163727,-0.37425694,0.8210157,9.765053,0.03111449,-0.03395252,-0.9500646,0.30863637,-0.5171051,-1.1748657,15.398148,-0.27322388,-0.48069763,-0.19180298
2023/4/28 15:25,19562,-0.37212086,-3.1648254,4.953843,-0.31416315,0.7950718,9.769317,0.027666647,-0.033734713,-0.9512487,0.30532345,-0.6942749,-2.2845917,14.552994,0.34568787,0.12437439,0.1277771
2023/4/28 15:25,19601,-0.022971362,-2.2743125,-0.96310425,-0.3787568,1.1048081,9.736854,0.035909176,-0.04763544,-0.9488925,0.3099105,-0.38601685,-1.0976562,8.776382,1.2415771,0.20213318,0.44735718
2023/4/28 15:25,19642,0.5293819,-1.1083689,-5.421487,-0.3637233,1.5850633,9.670866,0.043373723,-0.07100521,-0.9450635,0.31612033,0.15986633,0.560318,4.343521,1.0839233,-0.22929382,0.2524109
2023/4/28 15:25,19681,0.9500638,-0.79516923,-4.306158,-0.29210046,1.6920127,9.655162,0.041841183,-0.07728551,-0.9439029,0.31831366,0.70454407,0.923645,5.6256256,-0.56404114,0.08494568,-0.011779785
2023/4/28 15:25,19721,1.5603404,-1.1451,1.2118664,-0.3538194,1.3440052,9.707668,0.03893839,-0.05941723,-0.9459859,0.31632906,1.1761932,0.19342041,11.195129,-0.91877747,0.1296997,-0.3611908
2023/4/28 15:25,19762,0.35250428,-1.9864368,2.999093,-0.3919174,1.1322416,9.733181,0.037103772,-0.048816346,-0.9493544,0.30816627,-0.113082886,-0.843277,12.69809,0.062332153,0.057250977,-0.28341675
2023/4/28 15:25,19801,-0.084113866,-1.6545974,-0.38710308,-0.41545725,1.23621,9.719546,0.03980183,-0.054449797,-0.94978356,0.30555227,-0.4889679,-0.37580872,9.225906,0.39788818,-0.006652832,-0.007522583
2023/4/28 15:25,19842,-0.3217128,-1.2893517,-1.4404306,-0.40316,1.2992266,9.711842,0.040037308,-0.057031665,-0.94950634,0.30591202,-0.7553253,0.026412964,8.398102,-0.054840088,0.005065918,0.12350464
2023/4/28 15:25,19881,0.08744487,-0.61067474,-1.0489149,-0.4027842,1.2346003,9.7202835,0.038860105,-0.0529626,-0.9486107,0.3095522,-0.24356079,0.6896057,8.84462,-0.26896667,0.005065918,0.21832275
2023/4/28 15:25,19922,0.67435145,-0.060411096,0.20728207,-0.38442388,1.0706848,9.740443,0.035778128,-0.04577691,-0.9480408,0.31279874,0.28137207,1.0254059,10.003418,-0.48202515,-0.026901245,0.112854004
2023/4/28 15:25,19961,0.2710321,-0.23206234,1.2660627,-0.38033184,0.9264343,9.755381,0.0332919,-0.038802825,-0.9481343,0.31373134,-0.14181519,0.70217896,11.122711,-0.21037292,0.047668457,0.03189087
2023/4/28 15:25,20001,0.10707319,-0.37471765,0.45597553,-0.39099893,0.9055354,9.756922,0.033510305,-0.037583593,-0.947855,0.3146989,-0.29803467,0.5292053,10.305084,0.059143066,-0.008789063,0.112854004
2023/4/28 15:25,20042,0.4359225,-0.29574758,-0.09567547,-0.36373243,0.94622105,9.754114,0.032924213,-0.039931994,-0.9471699,0.31652892,0.07606506,0.71655273,9.731079,0.11665344,-0.06524658,0.1320343
2023/4/28 15:25,20081,0.37296662,-0.22797692,-0.5195799,-0.33244672,0.9783648,9.752059,0.032012798,-0.0419347,-0.9465024,0.318355,0.03236389,0.77101135,9.31987,0.043151855,-0.053527832,0.16291809
2023/4/28 15:25,20122,0.39064696,0.11546677,-0.7336998,-0.29779333,0.9797243,9.753042,0.030474942,-0.042479232,-0.94564086,0.32098308,0.05870056,1.1475067,9.18161,-0.05378723,-0.06845093,0.20446777
2023/4/28 15:25,20161,0.43518335,0.4386037,-0.6989927,-0.26954857,0.9506244,9.756744,0.028762743,-0.04143953,-0.9446917,0.3240571,0.17662048,1.4348145,9.205551,-0.1347351,-0.008789063,0.18849182
2023/4/28 15:25,20201,0.20283559,0.42872387,-0.44107246,-0.26281545,0.88385385,9.763202,0.027425373,-0.03825019,-0.94401246,0.32653525,-0.10470581,1.2851715,9.541931,-0.20185852,-0.005599976,0.1512146
2023/4/28 15:25,20242,-0.2573978,0.17510462,0.15120316,-0.26402867,0.82458264,9.768354,0.026553929,-0.035319258,-0.94355774,0.32824728,-0.5141144,1.0092316,10.006409,-0.098526,0.03488159,0.1639862
2023/4/28 15:25,20281,-0.073875815,0.43795067,-0.54406357,-0.2789359,0.82317525,9.768059,0.027247908,-0.034893237,-0.9426291,0.33089325,-0.3231659,1.2779846,9.310898,0.004806519,0.052993774,0.27796936
2023/4/28 15:25,20322,0.37485662,0.725276,-0.5588188,-0.28811386,0.81417894,9.768546,0.02782693,-0.034182377,-0.94078624,0.33612275,0.10598755,1.5575104,9.350998,-0.09638977,0.05619812,0.28649902
2023/4/28 15:25,20361,0.5250266,0.9315494,-0.3989067,-0.30623865,0.791569,9.769853,0.028452005,-0.032659248,-0.9393379,0.34024727,0.22210693,1.7448578,9.449158,-0.07295227,0.09347534,0.25559998
2023/4/28 15:25,20402,0.3904059,1.2110947,-0.55016613,-0.33485743,0.7847386,9.7694645,0.029834222,-0.03171503,-0.9379566,0.3440081,0.05152893,2.0034332,9.286346,-0.048461914,0.14035034,0.2566681
2023/4/28 15:25,20441,0.16022715,1.20123,-0.35557175,-0.38242966,0.77496076,9.768498,0.032353017,-0.030025596,-0.93631274,0.34838223,-0.27409363,1.966919,9.523972,-0.087875366,0.1531372,0.21406555
2023/4/28 15:25,20482,-1.2986482,0.3049546,0.922019,-0.41974953,0.7651295,9.767741,0.033824272,-0.028977698,-0.9347389,0.3525329,-1.7441254,1.0696869,11.014969,0.064468384,-0.03541565,0.5038147
2023/4/28 15:25,20521,0.42231452,1.2208459,1.0916386,-0.39560536,0.8717914,9.759809,0.035590157,-0.0348597,-0.9294117,0.36566657,0.22210693,2.2141266,10.793503,0.33610535,0.13395691,0.7072754
2023/4/28 15:25,20561,1.3764358,1.0323869,0.17273712,-0.4608224,0.9000767,9.754378,0.03907966,-0.033732977,-0.92537093,0.375531,1.1414795,1.8615723,10.288925,-0.4191742,0.24368286,0.50593567
2023/4/28 15:25,20602,1.8008912,-1.0391291,4.837474,-0.5146163,0.6752175,9.769834,0.037412457,-0.020350069,-0.9238031,0.38049176,1.3432007,-0.2854309,14.711014,-0.5065155,0.29161072,0.02444458
2023/4/28 15:25,20641,-0.2558465,-2.500924,2.6426678,-0.62059134,0.62262577,9.767169,0.04136214,-0.017382482,-0.9242838,0.37906,-0.9151306,-1.8781738,12.476028,0.40109253,0.16804504,-0.005386353
2023/4/28 15:25,20681,-0.31656086,-2.0469599,-0.33721828,-0.62786776,0.84289014,9.750164,0.04602269,-0.027602261,-0.9234509,0.3799453,-0.9690094,-1.2287445,9.65625,0.7536926,-0.08761597,0.16612244
2023/4/28 15:25,20722,-0.06990123,-1.3971899,-2.1502523,-0.5630076,1.1163881,9.726618,0.048408005,-0.041679688,-0.92193305,0.38204566,-0.63861084,-0.29260254,7.790573,0.5619354,-0.12490845,0.101135254
2023/4/28 15:25,20761,-0.10518241,-1.6682379,-1.9064856,-0.54819894,1.1806828,9.71987,0.04902073,-0.044961926,-0.9213854,0.38291556,-0.734375,-0.6104431,8.150909,-0.2199707,0.08708191,-0.10551453
2023/4/28 15:25,20801,-0.90741616,-2.131608,0.35449314,-0.61843824,1.0187802,9.733962,0.049067646,-0.036034025,-0.9225119,0.3811374,-1.659729,-1.0425873,10.350571,-0.35525513,0.17655945,-0.16410828
2023/4/28 15:25,20844,-0.53467494,-1.3900924,0.71299076,-0.7069901,0.91603065,9.738144,0.05101504,-0.029817032,-0.92297345,0.38030037,-1.1677246,-0.38059998,10.58461,-0.06123352,0.12010193,0.015914917
2023/4/28 15:25,20881,0.2905383,-0.9857387,0.62554073,-0.73385084,0.9176927,9.735999,0.05252996,-0.029030569,-0.9227159,0.38077968,-0.4811859,-0.06097412,10.4254,0.1486206,0.06578064,-0.05545044
2023/4/28 15:25,20921,0.03230387,-1.1270292,-0.8579197,-0.74035215,1.0186386,9.725463,0.05478033,-0.033741377,-0.9228986,0.37962982,-0.7247925,-0.08491516,9.04274,0.32757568,-0.07589722,0.006332398
2023/4/28 15:25,20962,0.7062659,-0.9230026,-1.5290108,-0.696538,1.1132671,9.718326,0.0545611,-0.03906878,-0.92271227,0.37960348,-0.017318726,0.18443298,8.305923,0.15608215,-0.08442688,-0.037338257
2023/4/28 15:25,21001,0.18926555,-1.0168842,-1.0194788,-0.69357616,1.0852482,9.721706,0.053766247,-0.03794886,-0.9238459,0.37706482,-0.5272827,0.04676819,8.853607,-0.19120789,0.003997803,-0.23548889
2023/4/28 15:25,21041,0.07189512,-1.0962816,-0.2810974,-0.6971742,0.97791404,9.732832,0.051719017,-0.032997265,-0.9255947,0.37351146,-0.6296234,-0.102264404,9.5395355,-0.24234009,0.006118774,-0.21098328
2023/4/28 15:25,21081,-0.25603193,-0.62028676,-0.43025875,-0.71506083,0.8615262,9.742528,0.050227284,-0.027323067,-0.9272133,0.37014338,-0.9618225,0.2957611,9.45874,-0.34672546,-0.007720947,-0.18861389
2023/4/28 15:25,21122,0.2939725,0.031713188,0.59071064,-0.70220137,0.69129765,9.757018,0.046324063,-0.019611135,-0.92855775,0.36776352,-0.363266,0.7650299,10.507996,-0.46070862,-0.022644043,-0.18754578
2023/4/28 15:25,21161,-0.008337915,0.27296358,0.96423626,-0.7075005,0.53120446,9.76666,0.043505196,-0.012092011,-0.9303163,0.36396793,-0.79003906,0.79855347,10.914413,-0.2785492,-0.03968811,-0.27383423
2023/4/28 15:25,21201,-0.34136897,0.22992402,0.47467613,-0.6817838,0.48780385,9.770753,0.04142311,-0.010695517,-0.93206567,0.35975447,-1.094101,0.77760315,10.190765,0.10707092,-0.09933472,-0.1971283
2023/4/28 15:25,21242,-0.15776074,0.53499275,-1.1335144,-0.6505019,0.5439345,9.769922,0.040814724,-0.014383015,-0.9333086,0.3564581,-0.813385,1.1103973,8.742874,0.10067749,-0.0982666,-0.1736908
2023/4/28 15:25,21281,-0.32868463,0.23437077,-0.6478329,-0.617793,0.54039514,9.772241,0.039235294,-0.014662047,-0.9347074,0.35294142,-0.92829895,0.82188416,9.205551,-0.0793457,-0.0897522,-0.23228455
2023/4/28 15:25,21321,-0.33522975,0.103354454,-0.1374855,-0.59699905,0.5076076,9.775291,0.037595868,-0.013617012,-0.9361473,0.34932706,-0.94506836,0.6141968,9.778366,-0.04951477,-0.08016968,-0.18861389
2023/4/28 15:25,21361,-0.054291964,0.31667364,-0.27105236,-0.5753588,0.4920338,9.777385,0.036239065,-0.013373536,-0.9373074,0.34635627,-0.6338196,0.8195038,9.631119,-0.04525757,-0.06098938,-0.19073486
2023/4/28 15:25,21402,-0.049115658,0.6509081,0.17558956,-0.54617697,0.4610372,9.780569,0.034252305,-0.012512689,-0.9384663,0.34344018,-0.62005615,1.14151,10.086609,-0.10064697,-0.104660034,-0.17050171
2023/4/28 15:25,21441,0.074623466,1.1388999,0.27924728,-0.5135551,0.44323406,9.783159,0.032346148,-0.012307033,-0.93933403,0.34125334,-0.45066833,1.627533,10.182983,-0.005844116,-0.08761597,-0.15026855
2023/4/28 15:25,21481,0.009528458,1.4628633,-0.050409317,-0.48194316,0.46701786,9.78366,0.03120405,-0.01408739,-0.9403195,0.3385662,-0.46144104,1.9543457,9.77597,0.078308105,-0.09933472,-0.23335266
2023/4/28 15:25,21521,-0.37738028,1.563973,0.09312725,-0.44051468,0.5155912,9.7831745,0.029975425,-0.017274495,-0.9418704,0.33419034,-0.81936646,2.1398926,9.99144,0.13476562,-0.14302063,-0.28981018
2023/4/28 15:25,21562,-0.25106403,1.7856491,0.62501717,-0.394441,0.6029893,9.780143,0.029194033,-0.023252707,-0.94352907,0.3291807,-0.53445435,2.4589233,10.499619,0.28604126,-0.11212158,-0.2397461
2023/4/28 15:25,21601,0.46488804,1.2249839,-0.08142567,-0.41483644,0.6834441,9.774006,0.031356946,-0.026098037,-0.94488525,0.32484987,0.025787354,1.9561462,9.7526245,-0.20185852,0.20106506,-0.35586548
2023/4/28 15:25,21641,-0.23917168,-1.6996956,4.2405434,-0.54863054,0.41571188,9.782462,0.033256028,-0.011280803,-0.9482099,0.31569734,-0.85528564,-1.3759918,14.402756,-0.88575745,0.27456665,-0.65093994
2023/4/28 15:25,21682,-1.6184362,-3.930288,4.9752293,-0.59672445,0.2628062,9.78495,0.033076018,-0.003520446,-0.95216614,0.303765,-2.248703,-3.6792145,14.8007965,0.35421753,0.07536316,-0.41125488
2023/4/28 15:25,21721,-1.1408005,-3.1280143,-0.65140533,-0.66156805,0.5376588,9.769526,0.040499937,-0.01589217,-0.95188737,0.30334404,-1.7548981,-2.531189,9.16066,1.0306549,0.17337036,0.4303131
2023/4/28 15:25,21761,0.34545404,-1.4106722,-4.1210375,-0.63027596,0.9456283,9.7405815,0.04569484,-0.03578476,-0.9480952,0.31264508,-0.2543335,-0.36862183,5.6728973,1.0040283,-0.36564636,0.5645294
2023/4/28 15:25,21801,2.0663738,0.30017817,-3.3877516,-0.5094913,1.0879186,9.732792,0.042538416,-0.044228997,-0.94492537,0.3214814,1.7065125,1.4102631,6.8233185,-0.38508606,-0.040740967,0.27052307
2023/4/28 15:25,21841,1.8269103,-0.18522143,0.83739567,-0.50675666,0.8478705,9.756777,0.03798797,-0.031152261,-0.94557184,0.32168365,1.0906067,0.5345917,11.032928,-0.6215668,0.043411255,-0.28767395
2023/4/28 15:25,21882,-0.4278558,-1.7984753,1.8014078,-0.51565933,0.72534204,9.766185,0.036688715,-0.026778854,-0.94753945,0.31639507,-1.042633,-1.1293793,11.547073,0.16246033,-0.008789063,-0.25997925
2023/4/28 15:25,21921,-0.7956675,-1.9661452,-0.6590986,-0.5264186,0.8701321,9.753777,0.03951526,-0.0336807,-0.9476836,0.3149604,-1.2748718,-1.0976562,9.0373535,0.42771912,-2.75E-04,0.13310242
2023/4/28 15:25,21961,-0.006655097,-1.0664353,-1.3779869,-0.5214741,0.93315655,9.748214,0.040471204,-0.036626633,-0.94603777,0.31942627,-0.5488281,-0.16511536,8.442398,-0.055908203,-0.017318726,0.31419373
2023/4/28 15:25,22002,0.84006417,-0.3952744,0.23400974,-0.4919832,0.8530885,9.757078,0.037940625,-0.032984283,-0.9441809,0.3255687,0.35559082,0.4902954,10.147064,-0.25831604,-0.030090332,0.3280487
2023/4/28 15:25,22041,1.1056288,0.040918052,0.7197828,-0.43887627,0.807474,9.763492,0.034783408,-0.031473927,-0.9425623,0.33072028,0.65844727,0.86138916,10.596573,0.028244019,-0.12809753,0.22364807
2023/4/28 15:25,22082,0.67225695,-0.24500155,-0.73070717,-0.37685204,0.8464268,9.762784,0.032551967,-0.034307033,-0.9416077,0.33337417,0.26341248,0.5812683,9.129532,0.049545288,-0.16218567,0.0766449
2023/4/28 15:25,22121,0.06772679,-0.5361502,-0.28055573,-0.28984505,0.8344572,9.766785,0.028196447,-0.03517951,-0.9413461,0.3344172,-0.2315979,0.29397583,9.619141,-0.06655884,-0.17922974,0.081970215
2023/4/28 15:25,22161,0.12431654,-0.16110307,-0.24578094,-0.24408787,0.80324084,9.77065,0.02554941,-0.03439035,-0.9405672,0.33689445,-0.12445068,0.69859314,9.584427,-0.064437866,-0.040740967,0.18423462
2023/4/28 15:25,22202,0.376081,0.4189409,-0.62287426,-0.21974236,0.7728455,9.77368,0.023735765,-0.032985847,-0.939127,0.3411582,0.12214661,1.2342987,9.28096,-0.14645386,-0.048202515,0.17463684
2023/4/28 15:25,22241,0.121479005,0.47301102,-0.33085918,-0.21042885,0.713449,9.778399,0.022532387,-0.030136485,-0.9381447,0.34419265,-0.1232605,1.20018,9.5946045,-0.15924072,0.029556274,0.13310242
2023/4/28 15:25,22281,-0.04791385,0.6224933,-0.6802826,-0.22265168,0.6756796,9.780811,0.022639975,-0.028369777,-0.93695134,0.34756985,-0.28904724,1.3013306,9.208542,-0.08255005,0.05831909,0.19807434
2023/4/28 15:25,22321,0.102198064,0.6516192,0.09647274,-0.2359596,0.6204594,9.784158,0.022401262,-0.025396518,-0.9355686,0.35151768,-0.14659119,1.3019257,9.938171,-0.21463013,0.027435303,0.2023468
2023/4/28 15:25,22362,0.44828367,0.7202889,0.61701775,-0.24481419,0.5864794,9.7860365,0.02232416,-0.023509046,-0.93394977,0.35593086,0.21852112,1.3240814,10.490631,0.029312134,0.04447937,0.24708557
2023/4/28 15:25,22401,0.5099164,0.91065,-0.33192062,-0.25722447,0.6361981,9.782611,0.023930466,-0.025553802,-0.93233854,0.3598877,0.23947144,1.5658875,9.544922,0.10067749,0.04234314,0.16825867
2023/4/28 15:25,22441,0.2617848,0.9354162,-0.042769432,-0.26523635,0.6778556,9.779599,0.025162922,-0.027314333,-0.93115884,0.3627175,-0.003540039,1.6155701,9.842407,0.07723999,0.062576294,0.15333557
2023/4/28 15:25,22481,0.3344576,1.2524092,0.19419003,-0.2731769,0.72159225,9.77625,0.026464308,-0.029148092,-0.92968535,0.36624464,0.052124023,2.0166016,10.135696,0.08683777,0.005065918,0.22471619
2023/4/28 15:25,22521,0.8042529,1.6532426,1.163291,-0.2355935,0.808159,9.770453,0.026455697,-0.033846874,-0.92788863,0.37037435,0.60458374,2.4577332,11.06105,0.34996033,-0.1366272,0.22364807
2023/4/28 15:25,22562,0.62570274,1.38066,0.21187496,-0.18760855,0.9992691,9.753801,0.02827541,-0.044738438,-0.92623407,0.37321496,0.24125671,2.2410583,10.027359,0.41067505,-0.01625061,0.1000824
2023/4/28 15:25,22601,0.4068514,-0.067738175,0.91001034,-0.21169278,1.0422089,9.748814,0.030016607,-0.04525293,-0.9253258,0.37526438,0.17002869,1.0451508,10.697144,-0.25405884,0.13928223,0.11178589
2023/4/28 15:25,22641,0.5082446,-1.5177262,3.6172218,-0.24351597,0.8703804,9.764913,0.028185086,-0.036518563,-0.9259981,0.3746992,0.29273987,-0.5930786,13.510925,-0.2711029,0.035949707,-0.112976074
2023/4/28 15:25,22681,0.09388326,-1.976994,1.5135679,-0.2359752,0.89038694,9.763294,0.02809976,-0.037695367,-0.92707753,0.3719096,-0.18011475,-1.1138153,11.511765,0.29562378,-0.03968811,0.03189087
2023/4/28 15:25,22722,0.64448,-1.4576042,0.046170235,-0.18316787,1.0199649,9.751744,0.028104449,-0.044828355,-0.9265092,0.3725336,0.4214325,-0.39974976,9.909439,0.5150757,-0.200531,0.070251465
2023/4/28 15:25,22761,0.119275846,-1.4396172,-1.9420643,-0.108088754,1.2148141,9.730516,0.028303487,-0.05550407,-0.9258119,0.37281436,0.032974243,-0.1956482,7.927643,0.43197632,-0.03968811,0.0809021
2023/4/28 15:25,22802,-0.683377,-1.9420546,-2.5410805,-0.17063741,1.2504184,9.725108,0.03193214,-0.056016386,-0.9258114,0.37244555,-0.9875641,-0.85165405,7.434433,-0.17095947,0.22236633,-0.13641357
2023/4/28 15:25,22841,-1.5823212,-2.9113638,-1.1759529,-0.27662042,1.0957067,9.741319,0.033887655,-0.046718203,-0.9270222,0.37053853,-1.8512726,-1.8350677,8.729706,-0.48414612,0.25219727,-0.029891968
2023/4/28 15:25,22882,-0.21576765,-1.4424224,0.42693996,-0.38622186,0.8966984,9.757927,0.035534747,-0.03361384,-0.9269129,0.37207505,-0.60627747,-0.5823059,10.261993,-0.48521423,0.2852173,0.021240234
2023/4/28 15:25,22921,0.08136475,-0.55718297,0.65836716,-0.4690587,0.71985215,9.76894,0.035825144,-0.024501765,-0.9268394,0.37294093,-0.30999756,0.20239258,10.576828,-0.25405884,0.07324219,0.030838013
2023/4/28 15:25,22961,0.38229316,-0.14425892,0.6409426,-0.48860344,0.67188853,9.771398,0.035917748,-0.022522723,-0.92710173,0.37240443,-0.1280365,0.5591278,10.473282,0.030380249,0.08175659,-0.056518555
2023/4/28 15:25,23002,-0.07100415,-0.38915533,-0.4890194,-0.5361916,0.70066273,9.766881,0.03867895,-0.023056865,-0.9277061,0.37058553,-0.67811584,0.29096985,9.348602,0.07511902,0.11051941,-0.1108551
2023/4/28 15:25,23041,-0.4668873,-0.75436383,-0.6560564,-0.56495464,0.6947915,9.765678,0.03988389,-0.022321375,-0.92848027,0.3685586,-1.0444183,-0.05618286,9.234879,-0.062301636,0.023162842,-0.061843872
2023/4/28 15:25,23081,-0.27518338,-0.78592336,-0.31286335,-0.5937697,0.647018,9.767251,0.04032919,-0.019553851,-0.92890227,0.3676027,-0.860672,-0.12980652,9.570068,-0.12940979,0.088150024,-0.03201294
2023/4/28 15:25,23122,-0.2539479,-0.6361093,0.13158798,-0.62519985,0.58717114,9.769071,0.040682282,-0.016154585,-0.92923295,0.36689246,-0.8708496,-0.021469116,10.020767,-0.111312866,0.03488159,-0.033081055
2023/4/28 15:25,23161,-0.0771808,-0.22416288,-0.24386501,-0.63154995,0.5615363,9.770169,0.040491376,-0.014847644,-0.9295246,0.36622944,-0.702652,0.3610077,9.604187,-0.022888184,-0.019439697,-0.023498535
2023/4/28 15:25,23201,0.21391135,0.05779165,-0.4581747,-0.6237747,0.5212481,9.772902,0.039353713,-0.013115492,-0.92992616,0.3653992,-0.3985901,0.595047,9.504227,-0.20825195,-0.02583313,-0.070373535
2023/4/28 15:25,23242,0.19914627,0.14467126,0.42512608,-0.6082398,0.43056086,9.7782955,0.0365905,-0.008794079,-0.93081045,0.36355975,-0.39439392,0.51782227,10.372131,-0.19226074,-0.057785034,-0.09700012
2023/4/28 15:25,23281,0.10820317,0.30621657,-0.2126522,-0.5805141,0.40247315,9.781177,0.034891896,-0.00863392,-0.93175197,0.36131197,-0.45066833,0.72372437,9.73526,0.049545288,-0.085494995,-0.122558594
2023/4/28 15:25,23321,0.01648426,0.48685977,-0.90423965,-0.5470071,0.409304,9.782824,0.033541143,-0.009476268,-0.9328276,0.3586333,-0.5147095,0.9278412,8.984085,-0.08680725,-0.083358765,-0.15771484
2023/4/28 15:25,23361,-0.038819015,0.4110326,0.20375347,-0.51001793,0.349126,9.787154,0.030639302,-0.007434331,-0.9346432,0.35418642,-0.54045105,0.7859802,10.07106,-0.14645386,-0.108932495,-0.24507141
2023/4/28 15:25,23402,-0.27894914,0.4142967,-0.061203003,-0.48138142,0.32451078,9.789452,0.028795194,-0.006909906,-0.936317,0.34990498,-0.7457428,0.73750305,9.815475,0.001617432,-0.10998535,-0.21524048
2023/4/28 15:25,23441,-0.062861204,0.7483977,-0.3849554,-0.43532,0.32390037,9.791627,0.026551755,-0.007806294,-0.93772537,0.3462733,-0.5188904,1.0774689,9.517395,-0.041000366,-0.12809753,-0.20352173
2023/4/28 15:25,23481,0.19075167,1.134752,-0.04224205,-0.39081267,0.2949418,9.79442,0.023880024,-0.007301481,-0.9391603,0.34257028,-0.17771912,1.4282227,9.8789215,-0.120895386,-0.12063599,-0.23867798
2023/4/28 15:25,23522,0.23492724,1.5616016,0.6264725,-0.33873177,0.26425922,9.7972355,0.020812556,-0.006846381,-0.9409473,0.33784348,-0.09512329,1.8855133,10.620529,-0.052719116,-0.15686035,-0.31643677
2023/4/28 15:25,23561,-0.34345216,1.7195063,0.7275667,-0.28502318,0.29167506,9.798167,0.01864559,-0.009212343,-0.9432042,0.33156195,-0.6374054,2.0100098,10.627701,0.14115906,-0.15792847,-0.38781738
2023/4/28 15:25,23602,-1.0118265,1.2775056,0.7559614,-0.24004957,0.3854133,9.796132,0.01797025,-0.014604802,-0.9453653,0.32518953,-1.3287354,1.6089783,10.590591,0.2743225,-0.06098938,-0.30899048
2023/4/28 15:25,23641,-0.6222163,0.62414384,0.4338932,-0.27016124,0.4365861,9.793201,0.020191751,-0.01667307,-0.9468694,0.3205506,-0.8415222,0.94039917,10.490631,-0.1304779,0.12756348,-0.20352173
2023/4/28 15:25,23681,-0.41916767,-1.2234856,4.1158867,-0.28600642,0.3105337,9.797559,0.018837051,-0.010425971,-0.9487073,0.31542188,-0.67871094,-0.85523987,13.9747925,-0.20397949,-0.16111755,-0.3505249
2023/4/28 15:25,23721,-0.6756637,-2.0392692,3.3018904,-0.22904174,0.358223,9.797428,0.016781947,-0.013731149,-0.9502083,0.3108601,-0.8894043,-1.6596985,13.211639,0.48417664,-0.10572815,-0.053329468
2023/4/28 15:25,23761,-0.627258,-2.1630995,-0.658247,-0.2199108,0.63310254,9.783721,0.02073295,-0.02718782,-0.9495602,0.31171507,-0.87384033,-1.4807281,9.190582,0.96461487,-0.015182495,0.19488525
