time(ms),acc.x,acc.y,acc.z,acclinear.x,acclinear.y,acclinear.z,gravity.x,gravity.y,gravity.z,gyroscope.x,gyroscope.y,gyroscope.z,RV.x,RV.y,RV.z,RV.cos,RV.heading
1,-0.052050002,0.00795,11.227051,0.2,-0.49,1.431,-0.241,0.49,9.791,0.3878875,-0.7739875,0.0878625,0.0277,-0.002971,-0.534234,0.844877,0
41,-0.29295,0.87195003,9.151051,-0.264,0.112,-0.638,-0.037,0.749,9.777,0.1854875,0.16445,0.1144,0.03315,-0.018792,-0.532825,0.845366,0
81,0.24900001,0.85800004,9.70905,0.323,0.066,-0.076,-0.078,0.792,9.774,0.012925,0.019524999,0.0495,0.036349,-0.018071,-0.53115,0.846304,0
121,-0.15495001,0.74100006,9.70695,-0.056,-0.062,-0.075,-0.095,0.799,9.773,0.064075,0.111237496,-0.0166375,0.037046,-0.017613,-0.531354,0.846155,0
161,-0.27405003,0.79605,9.666,-0.119,-0.005,-0.116,-0.155,0.794,9.773,-0.072325,0.1579875,0.0484,0.038527,-0.014997,-0.5313,0.846174,0
201,0.043050002,0.63495004,10.147051,0.22,-0.126,0.371,-0.18,0.751,9.776,-0.0606375,0.036575,0.0037125,0.037401,-0.012551,-0.530446,0.8468,0
241,-0.56595004,0.70905006,9.85305,-0.362,-0.025,0.07,-0.195,0.733,9.777,-0.01375,0.036575,0.03025,0.037277,-0.010878,-0.530283,0.84693,0
281,-0.11895001,0.70695,9.759001,0.109,-0.042,-0.024,-0.218,0.737,9.776,0.0831875,-0.0081125,0.1197625,0.037873,-0.010545,-0.529044,0.847683,0
321,0.333,0.87705004,9.45495,0.547,0.06,-0.336,-0.164,0.772,9.774,0.047025,-0.0336875,-0.027224999,0.037874,-0.01363,-0.52818,0.848177,0
361,-0.55905,0.86700004,10.33605,-0.381,0.082,0.549,-0.176,0.775,9.774,-0.021175,0.0845625,-0.03355,0.038323,-0.013311,-0.529199,0.847526,0
402,0.079050004,0.97800004,9.868951,0.209,0.134,0.17,-0.178,0.808,9.771,0.1727,-0.17325,0.058025,0.039818,-0.014085,-0.528831,0.847675,0
441,-0.112050004,0.94605005,9.958051,0.001,0.072,0.188,-0.109,0.869,9.767,0.08855,-0.045375,0.0015125,0.040616,-0.018748,-0.52893,0.847485,0
481,0.18195,1.128,9.5130005,0.263,0.209,-0.269,-0.073,0.92,9.763,0.1258125,-0.0922625,-0.0155375,0.041845,-0.021711,-0.528932,0.847353,0
521,-0.29805002,1.0330501,9.958051,-0.218,0.102,0.141,-0.068,0.946,9.76,-0.004125,0.0493625,-0.03575,0.042806,-0.022676,-0.529627,0.846846,0
562,0.00705,1.0180501,9.42405,0.069,0.042,-0.306,-0.054,0.966,9.758,0.062975,-0.0528,-0.0633875,0.043322,-0.02379,-0.529638,0.846782,0
601,-0.51405,0.94605005,9.984,-0.436,-0.032,0.225,-0.078,0.97,9.758,-0.006325,-0.00495,-0.00275,0.044106,-0.022891,-0.53036,0.846314,0
641,0.12495001,0.86505,10.342951,0.168,-0.127,0.58,-0.046,0.985,9.756,0.1513875,-0.0444125,0.0111375,0.043917,-0.024707,-0.529898,0.846562,0
681,-0.45405003,1.18095,9.72795,-0.39,0.109,-0.023,-0.059,1.061,9.748,0.1524875,-0.0902,0.023924999,0.047568,-0.026191,-0.529673,0.846461,0
721,-0.11400001,1.18095,10.047001,-0.061,0.061,0.294,-0.047,1.11,9.743,0.15345,0.0270875,0.0441375,0.049518,-0.028019,-0.528739,0.846874,0
761,0,1.3579501,8.95005,0.042,0.171,-0.787,-0.042,1.177,9.735,0.08855,-0.078375,0.0506,0.052156,-0.029981,-0.528189,0.846993,0
802,0.22695,1.29795,9.967951,0.251,0.101,0.222,-0.033,1.192,9.733,-0.0191125,0.0749375,0.023924999,0.052567,-0.03078,-0.528328,0.846851,0
841,-0.30105,1.3080001,9.505051,-0.261,0.101,-0.238,-0.037,1.206,9.732,0.0044,-0.1104125,0.006875,0.053302,-0.031005,-0.528637,0.846604,0
881,0.54105,1.11405,10.486951,0.547,-0.086,0.739,-0.019,1.189,9.734,-0.037125,0.1783375,0.0015125,0.052021,-0.031474,-0.528063,0.847025,0
921,-0.43695003,1.45905,9.951,-0.368,0.244,0.211,-0.067,1.212,9.731,0.1397,-0.06985,-0.0378125,0.054381,-0.029879,-0.528492,0.846667,0
961,-0.36105,1.33905,9.108001,-0.313,0.07,-0.626,-0.04,1.264,9.724,-0.004125,-0.079475,0.0270875,0.055871,-0.032486,-0.528747,0.846315,0
1002,-0.021000002,1.00605,10.70505,0.018,-0.18,0.932,-0.047,1.197,9.733,-0.1948375,0.089925,0.0803,0.053197,-0.030337,-0.528124,0.846955,0
1041,-0.11595,1.08105,10.533001,-0.042,-0.095,0.792,-0.065,1.174,9.735,0.1513875,-0.036849998,0.0441375,0.052718,-0.028843,-0.52741,0.847482,0
1081,-0.13095,1.23105,9.819,-0.07,-0.008,0.078,-0.051,1.237,9.728,0.1397,0.0143,0.0771375,0.055076,-0.031113,-0.526767,0.847652,0
1121,0.29505002,1.28205,9.382951,0.345,-0.01,-0.35,-0.059,1.29,9.721,0.2079,0.070675,0.0174625,0.057636,-0.03217,-0.525673,0.848121,0
1162,0.18705001,1.389,9.814051,0.238,0.037,0.066,-0.048,1.353,9.712,0.1194875,0.0484,-0.034649998,0.060125,-0.034348,-0.525646,0.84788,0
1201,0.18405001,1.3939501,9.0070505,0.207,-0.029,-0.7,-0.03,1.422,9.702,0.2079,-0.0518375,-0.077275,0.062602,-0.037064,-0.526149,0.847274,0
1241,-0.025050001,1.4299501,9.55095,0.014,-0.028,-0.149,-0.029,1.458,9.697,-0.01155,0.0248875,-0.0559625,0.064102,-0.038164,-0.527067,0.846542,0
1281,-0.19500001,1.473,9.472051,-0.162,-0.001,-0.229,-0.028,1.472,9.695,0.1067,-0.122099996,-0.0411125,0.064653,-0.038603,-0.527683,0.846097,0
1321,0.055050004,1.4610001,9.63,0.037,-0.031,-0.063,0.017,1.488,9.692,-0.047849998,-0.03795,-0.0378125,0.064113,-0.041078,-0.528164,0.845721,0
1362,-0.14295001,1.45605,10.497001,-0.096,-0.004,0.79,-0.028,1.461,9.697,-0.01485,0.1197625,-0.0303875,0.06412,-0.038384,-0.528948,0.845357,0
1401,-0.06795,1.557,9.996,-0.022,0.07,0.289,-0.045,1.484,9.693,0.1269125,-0.0081125,-0.0240625,0.065565,-0.038343,-0.529412,0.844957,0
1441,-0.35805002,1.5949501,9.489,-0.288,0.063,-0.206,-0.066,1.531,9.686,0.08635,0.053625,-0.034649998,0.068154,-0.038735,-0.529736,0.844532,0
1481,-0.32895002,1.50195,9.844951,-0.234,-0.047,0.15,-0.092,1.546,9.683,1.38E-04,0.0089375,0.0015125,0.069498,-0.03802,-0.529841,0.844388,0
1521,-0.21900001,1.4760001,10.21905,-0.097,-0.077,0.532,-0.12,1.548,9.682,0.131175,0.0334125,0.0793375,0.070392,-0.036826,-0.529364,0.844666,0
1562,0.21105,1.69305,9.1060505,0.284,0.061,-0.571,-0.079,1.627,9.67,0.1854875,-0.1093125,0.025024999,0.072774,-0.040678,-0.528278,0.844968,0
1601,-0.29595003,1.6189501,9.45495,-0.202,-0.054,-0.211,-0.083,1.662,9.664,0.0064625,0.1186625,0.0281875,0.074384,-0.041453,-0.527867,0.845046,0
1641,0.177,1.6380001,9.321,0.275,-0.029,-0.347,-0.091,1.664,9.663,0.0064625,-0.045375,0.004675,0.07494,-0.040753,-0.527071,0.845528,0
1681,-0.32205,1.5829501,9.525001,-0.218,-0.067,-0.146,-0.095,1.645,9.667,-0.093637496,0.039875,-0.00275,0.074017,-0.040427,-0.527631,0.845276,0
1721,0.11505,1.59105,10.068001,0.204,-0.028,0.392,-0.096,1.608,9.673,-0.072325,-0.0251625,0.0378125,0.072337,-0.039342,-0.527216,0.845732,0
1762,-0.135,1.7719501,9.723001,-0.04,0.175,0.035,-0.083,1.594,9.675,-0.0105875,0.0441375,4.13E-04,0.071466,-0.039568,-0.527089,0.845874,0
1801,-0.13305001,1.8319501,9.661051,-0.022,0.223,-0.017,-0.1,1.601,9.674,-0.006325,-0.00385,0.0495,0.072275,-0.038944,-0.526695,0.846079,0
1841,-0.058950003,1.8010501,9.15795,0.026,0.178,-0.518,-0.08,1.618,9.671,-0.0617375,-0.0444125,0.0100375,0.072508,-0.040226,-0.526019,0.84642,0
1882,-0.147,1.5670501,10.090051,-0.076,0,0.344,-0.088,1.561,9.681,-0.1969,0.0408375,0.0122375,0.070239,-0.038323,-0.525956,0.846739,0
1921,-0.35805002,1.452,10.078051,-0.252,-0.07,0.377,-0.101,1.514,9.688,-0.003025,-0.0444125,0.0292875,0.068505,-0.036512,-0.526089,0.846879,0
1961,-0.040050004,1.557,9.781051,0.051,0.041,0.09,-0.077,1.51,9.689,-0.04895,-0.045375,0.0515625,0.067721,-0.037358,-0.525942,0.846996,0
2001,-0.34605002,1.54305,9.948001,-0.264,0.047,0.25,-0.082,1.492,9.692,-0.01375,0.0067375,0.0526625,0.066865,-0.03693,-0.525621,0.847281,0
2042,0.37800002,1.5690001,9.90495,0.381,0.064,0.252,-0.053,1.503,9.69,0.0746625,-0.0518375,0.089925,0.066788,-0.038189,-0.525135,0.847533,0
2081,-0.11895001,1.7410501,9.349951,-0.074,0.187,-0.34,-0.034,1.543,9.684,0.0309375,0.0143,4.13E-04,0.068022,-0.04006,-0.524945,0.847467,0
2121,0.22005,1.62195,9.843,0.247,0.077,0.149,-0.029,1.543,9.684,-0.020075,0.0163625,-0.0048125,0.067889,-0.040266,-0.524773,0.847574,0
2161,-0.31005,1.5670501,9.913051,-0.263,0.025,0.203,-0.035,1.54,9.684,-0.003025,0.0089375,0.0165,0.067935,-0.039945,-0.525032,0.847425,0
2201,0.28500003,1.5280501,9.69495,0.315,-0.038,0.068,-0.013,1.552,9.683,0.1013375,-0.0507375,0.0111375,0.067884,-0.041173,-0.524467,0.84772,0
2242,-0.19800001,1.6860001,9.288,-0.179,0.088,-0.401,-0.011,1.586,9.677,-0.0606375,-0.0155375,0.0122375,0.069305,-0.042243,-0.524681,0.84742,0
2281,0.201,1.54305,10.096951,0.246,-0.04,0.518,-0.015,1.553,9.682,0.0320375,0.0419375,-0.027224999,0.068004,-0.041092,-0.524182,0.847891,0
2321,-0.56895,1.62195,9.450001,-0.571,0.053,-0.307,-0.026,1.58,9.678,-0.0180125,-0.0688875,-0.0048125,0.069486,-0.041359,-0.524329,0.847667,0
2361,0.38505003,1.404,10.342951,0.395,-0.15,0.655,-0.013,1.553,9.682,0.069299996,0.003575,0.06435,0.068019,-0.041084,-0.52294,0.848656,0
2402,-0.23400001,1.74405,9.41205,-0.223,0.14,-0.263,-0.008,1.603,9.674,0.077825,-0.0859375,0.0292875,0.070061,-0.042634,-0.522481,0.848697,0
2441,0.15795001,1.69605,9.529051,0.125,0.071,-0.151,0.025,1.617,9.672,0.0097625,-0.039049998,0.038775,0.06986,-0.044405,-0.521898,0.848981,0
2481,0.57000005,1.5259501,9.549001,0.505,-0.085,-0.125,0.053,1.611,9.673,-0.1533125,0.002475,0.0089375,0.068797,-0.045483,-0.521864,0.849032,0
2521,-0.028050002,1.6099501,10.420051,-0.017,0.057,0.736,-0.009,1.549,9.683,0.0022,0.3551625,-0.1337875,0.067734,-0.041161,-0.522798,0.848763,0
2561,-0.80805004,1.7080501,9.490951,-0.715,0.119,-0.197,-0.088,1.583,9.677,0.052249998,-0.1689875,-0.0207625,0.071235,-0.038772,-0.524466,0.847559,0
2602,-0.20700002,1.5280501,9.309,-0.136,-0.055,-0.375,-0.065,1.578,9.678,-0.088275,-0.0922625,0.1518,0.070617,-0.039532,-0.52368,0.848061,0
2641,0.606,1.3990501,10.533001,0.635,-0.127,0.84,-0.039,1.514,9.688,-0.15015,0.1590875,0.039875,0.067089,-0.039025,-0.521889,0.849474,0
2681,-0.25800002,1.5469501,9.76395,-0.18,0.031,0.062,-0.064,1.507,9.689,0.1364,-0.114675,-0.044275,0.067394,-0.037603,-0.522542,0.849112,0
2721,-0.135,1.50195,8.986051,-0.087,-0.067,-0.72,-0.035,1.553,9.682,0.0235125,0.0089375,-0.0400125,0.068557,-0.040165,-0.523333,0.848415,0
2762,-0.40395,1.605,9.346951,-0.343,0.068,-0.368,-0.063,1.536,9.685,-0.122375,-0.061325,-0.00275,0.068716,-0.038533,-0.523762,0.848213,0
2801,0.081,1.4280001,10.0990505,0.114,-0.069,0.399,-0.031,1.483,9.693,-0.1117875,-0.0581625,0.055825,0.065412,-0.038448,-0.523624,0.848563,0
2841,-0.010950001,1.7560501,9.666,0.019,0.276,-0.039,-0.017,1.466,9.696,-0.020075,-0.088,0.0526625,0.064288,-0.038555,-0.52296,0.849054,0
2881,0.22005,1.6170001,9.823951,0.194,0.145,0.068,0.029,1.462,9.696,-0.1021625,-0.0251625,-5.50E-04,0.062924,-0.04047,-0.522543,0.849324,0
2921,-0.25800002,1.5619501,10.056001,-0.24,0.112,0.322,0.008,1.424,9.702,-0.121275,0.0589875,-0.0198,0.061775,-0.038537,-0.523075,0.84917,0
2962,0.21105,1.353,10.2289505,0.177,-0.041,0.562,0.013,1.389,9.707,-0.0180125,-0.055,0.0196625,0.060143,-0.037817,-0.522448,0.849705,0
3001,-0.07095,1.5160501,9.634951,-0.13,0.131,-0.063,0.021,1.393,9.707,0.010725,0.039875,-0.0314875,0.060107,-0.038243,-0.522164,0.849863,0
3041,0.22695,1.5000001,10.147051,0.208,0.101,0.44,0.009,1.397,9.706,0.0246125,-0.0103125,0.0506,0.060599,-0.03779,-0.522036,0.849927,0
3081,0.21495001,1.6699501,9.40005,0.182,0.221,-0.302,0.05,1.442,9.699,0.08965,-0.046475,-0.0389125,0.061506,-0.040774,-0.521644,0.849965,0
3121,-0.040050004,1.4640001,9.76395,-0.086,0,0.054,0.059,1.456,9.697,-0.0276375,-0.0209,-0.027224999,0.061872,-0.041583,-0.521902,0.849741,0
3162,0.117000006,1.5090001,9.76395,0.061,0.04,0.054,0.047,1.457,9.697,0.0479875,0.037675,-0.0303875,0.062249,-0.041068,-0.521841,0.849776,0
3201,0.19605,1.8900001,9.012,0.151,0.388,-0.689,0.039,1.491,9.692,-0.0072875,4.13E-04,-0.0378125,0.063915,-0.041657,-0.522104,0.849462,0
3241,0.10305001,1.5280501,9.75405,0.052,0.046,0.057,0.042,1.478,9.694,-0.12979999,0.0845625,-0.059125,0.063215,-0.041536,-0.523112,0.8489,0
3281,0.27795002,1.794,9.276,0.247,0.322,-0.421,0.025,1.461,9.697,-0.0691625,-0.0325875,0.0207625,0.062938,-0.040335,-0.523506,0.848736,0
3321,0.47595003,1.4830501,10.1640005,0.413,0.053,0.457,0.062,1.413,9.703,-0.1755875,0.0792,0.0037125,0.059866,-0.040618,-0.52319,0.849139,0
3362,0.16005,1.677,9.54405,0.096,0.288,-0.173,0.053,1.386,9.707,-0.022275,-0.0528,0.038775,0.05889,-0.039514,-0.522622,0.849609,0
3401,-0.102000006,1.8079501,9.46695,-0.168,0.403,-0.24,0.073,1.394,9.706,-0.07865,0.0600875,0.108075,0.058786,-0.040477,-0.521597,0.8502,0
3441,0.33,1.8040501,9.37395,0.271,0.4,-0.335,0.055,1.394,9.706,-0.15015,0.0089375,0.1368125,0.059535,-0.039588,-0.518943,0.851813,0
3481,-0.054,1.4470501,10.48005,-0.11,0.108,0.758,0.053,1.332,9.715,-0.173525,0.1357125,0.0100375,0.05685,-0.037859,-0.51787,0.852727,0
3522,-0.56895,1.7050501,9.72795,-0.455,0.372,-0.021,-0.038,1.3,9.719,-0.1084875,0.2039125,0.0196625,0.057871,-0.032743,-0.517129,0.85332,0
3561,-1.0720501,1.57395,10.308001,-0.899,0.293,0.574,-0.162,1.272,9.722,-0.0595375,0.2294875,0.16885,0.060036,-0.026292,-0.515835,0.854176,0
3601,-0.109050006,1.9860001,9.3,0.119,0.643,-0.424,-0.229,1.335,9.712,0.0917125,0.0664125,0.1857625,0.064405,-0.024913,-0.512277,0.856038,0
3642,-0.40800002,1.9900501,9.09795,-0.144,0.597,-0.605,-0.25,1.389,9.704,-0.087175,0.0419375,0.0719125,0.067628,-0.025366,-0.510199,0.857017,0
3681,-0.54,1.9039501,10.36695,-0.221,0.548,0.656,-0.314,1.34,9.709,-0.242825,0.24653749,0.091025,0.067129,-0.021093,-0.508372,0.858257,0
3721,-0.07095,2.148,9.508051,0.273,0.797,-0.201,-0.34,1.341,9.708,0.01925,-0.04015,0.0611875,0.067897,-0.019794,-0.506372,0.859409,0
3761,-0.41805002,2.3809502,9.166051,-0.094,0.986,-0.55,-0.315,1.407,9.7,-0.2129875,-0.0198,0.0154,0.070202,-0.022543,-0.505391,0.859734,0
3801,0.19905001,2.18895,10.438951,0.498,0.808,0.755,-0.323,1.368,9.705,-0.1170125,0.1271875,0.0515625,0.068755,-0.021012,-0.503367,0.861076,0
3841,-0.64305,2.53905,8.80605,-0.249,1.051,-0.798,-0.334,1.458,9.691,0.2088625,-0.0859375,-0.1060125,0.073028,-0.022849,-0.503118,0.860823,0
3882,-0.813,2.33505,8.622001,-0.476,0.745,-1.05,-0.327,1.583,9.672,0.0385,-0.063525,-0.115637496,0.078367,-0.026495,-0.503794,0.859853,0
3921,-0.83505005,2.0650501,9.549001,-0.464,0.446,-0.118,-0.366,1.61,9.666,-0.0829125,-0.061325,-0.1304875,0.080553,-0.025529,-0.504486,0.859274,0
3961,-0.98505,1.9039501,9.915001,-0.588,0.286,0.264,-0.363,1.621,9.664,0.014025,-0.18493749,-0.20405,0.080911,-0.026153,-0.50639,0.858101,0
4001,-1.0360501,1.8079501,9.85305,-0.66,0.157,0.186,-0.374,1.64,9.661,0.02255,-0.0826375,-0.129525,0.082002,-0.026332,-0.508008,0.857035,0
4041,-0.67395,1.7389501,10.726951,-0.323,0.101,1.054,-0.341,1.626,9.664,-0.066,-0.17435,-0.1529,0.080612,-0.027432,-0.50911,0.856478,0
4081,-0.60705,1.8229501,11.205001,-0.276,0.194,1.528,-0.322,1.616,9.667,0.12045,-0.121,-0.095425,0.079512,-0.028202,-0.510574,0.855684,0
4122,0.18195,1.5450001,9.87405,0.412,-0.128,0.2,-0.235,1.667,9.66,0.0853875,-0.2946625,-0.1986875,0.079436,-0.033471,-0.511544,0.854921,0
4161,-0.624,0.82395005,10.92,-0.431,-0.761,1.232,-0.181,1.578,9.677,-0.31625,-0.079475,-0.3339875,0.073656,-0.033624,-0.514891,0.853422,0
4201,-1.0330501,0.44595003,12.244051,-0.794,-0.961,2.54,-0.226,1.393,9.704,-0.1852125,-0.014575,-0.1764125,0.067034,-0.027269,-0.518843,0.8518,0
4242,0.36195,0.46800002,11.542951,0.562,-0.891,1.826,-0.206,1.361,9.709,0.3515875,-0.0666875,0.0026125,0.064673,-0.026954,-0.519169,0.851794,0
4281,0.28695002,0.86505,8.991,0.454,-0.647,-0.699,-0.168,1.505,9.688,0.621225,0.0015125,-0.111375,0.070234,-0.032713,-0.518702,0.851436,0
4321,0.79200006,0.90795004,7.8769503,0.919,-0.787,-1.787,-0.129,1.686,9.659,0.366575,-0.1285625,-0.187,0.077371,-0.03958,-0.518959,0.850369,0
4361,0.86205006,0.38595003,8.574,1.004,-1.349,-1.084,-0.149,1.729,9.651,-0.105325,0.13145,-0.3095125,0.079376,-0.040097,-0.522231,0.848154,0
4402,0.85200006,0.10095,9.936001,0.991,-1.492,0.251,-0.162,1.571,9.678,-0.155375,0.103675,-0.196625,0.072729,-0.035483,-0.525574,0.846889,0
4441,0.04095,0.87705004,8.76105,0.2,-0.637,-0.93,-0.16,1.512,9.687,0.18865,0.0132,-0.0974875,0.070009,-0.033953,-0.527085,0.846242,0
4481,0.12195001,1.4250001,7.557,0.239,-0.14,-2.135,-0.115,1.557,9.681,-0.022275,-0.031625,0.03135,0.07075,-0.037074,-0.526489,0.84642,0
4521,0.36405003,1.5280501,9.0720005,0.436,0.014,-0.618,-0.081,1.506,9.689,-0.2300375,-0.0581625,0.038775,0.067901,-0.037123,-0.525336,0.847368,0
4561,0.33,1.35105,9.58395,0.347,-0.078,-0.168,-0.019,1.422,9.702,-0.240625,-0.07315,-0.0207625,0.062361,-0.037369,-0.524128,0.84853,0
4602,0.606,1.296,10.36305,0.595,-0.038,0.635,0.003,1.332,9.715,-0.1266375,0.106975,0.0122375,0.057885,-0.035875,-0.523174,0.8495,0
4641,0.32595003,1.78005,9.30195,0.313,0.448,-0.465,0,1.349,9.713,0.08635,0.0323125,0.0165,0.058806,-0.036029,-0.521281,0.850593,0
4681,0.582,2.09805,9.240001,0.494,0.68,-0.509,0.052,1.416,9.703,-0.0254375,-0.0496375,0.055825,0.060429,-0.040015,-0.519742,0.851243,0
4721,0.55305004,2.38995,9.84105,0.488,0.936,0.134,0.056,1.446,9.699,-0.04895,0.18259999,0.058025,0.061776,-0.040783,-0.516626,0.853005,0
4761,0.057000004,2.4090002,10.312051,0.024,0.905,0.618,0.029,1.492,9.692,0.0405625,-0.0155375,0.075075,0.064668,-0.040521,-0.512588,0.855236,0
4801,0.40500003,1.9810501,11.107051,0.337,0.436,1.415,0.057,1.538,9.685,0.0182875,0.03025,0.1379125,0.066144,-0.042747,-0.509653,0.856767,0
4842,-0.57795,1.7839501,11.766001,-0.551,0.219,2.073,-0.02,1.564,9.681,0.2088625,0.275275,0.261525,0.069587,-0.039527,-0.503733,0.860144,0
4881,0.53400004,1.9660501,10.272,0.551,0.252,0.613,-0.02,1.708,9.656,0.4092,-0.267025,0.376475,0.076375,-0.042642,-0.49606,0.86387,0
4921,1.00605,0.81705004,10.39095,0.797,-0.933,0.731,0.201,1.746,9.647,-0.1948375,-0.2382875,0.0207625,0.072777,-0.052964,-0.490009,0.867057,0
4962,-0.657,-0.216,12.651001,-0.799,-1.76,2.958,0.145,1.556,9.681,-0.0925375,0.40301248,0.0154,0.065739,-0.045509,-0.488592,0.868841,0
5001,-0.83895004,0.48405004,8.95695,-0.817,-1.079,-0.733,-0.013,1.556,9.682,0.66165,-0.03795,0.0495,0.069816,-0.038245,-0.486563,0.87001,0
5041,-0.94005007,0.72405005,7.2360005,-1.034,-1.025,-2.416,0.1,1.75,9.648,0.1695375,-0.3213375,-0.00165,0.075771,-0.047738,-0.484753,0.870053,0
5081,-0.46800002,0.12495001,9.868951,-0.557,-1.516,0.192,0.094,1.638,9.668,-0.38445,0.2454375,0.0143,0.070845,-0.044365,-0.481641,0.872373,0
5121,-0.88695,0.24705002,10.67595,-0.86,-1.207,0.966,-0.026,1.451,9.698,-0.0532125,0.09735,0.0356125,0.065681,-0.034539,-0.480158,0.874037,0
5162,-0.61200005,0.95595,8.44005,-0.544,-0.544,-1.103,-0.084,1.453,9.697,0.3441625,-0.0741125,0.1271875,0.06707,-0.032595,-0.477766,0.875316,0
5201,-0.21000001,1.4470501,7.9470005,-0.107,-0.086,-1.745,-0.097,1.529,9.686,-0.055275,0.078099996,0.113437496,0.071252,-0.03268,-0.472644,0.877759,0
5241,-0.00405,1.41795,9.501,0.139,-0.053,-0.201,-0.142,1.466,9.695,-0.1596375,0.171875,-0.0059125,0.069583,-0.028881,-0.469456,0.879735,0
5281,-0.109050006,1.53495,9.46695,0.036,0.104,-0.247,-0.173,1.433,9.699,-0.0669625,0.021724999,-0.0837375,0.06889,-0.026722,-0.46916,0.880016,0
5321,-0.50895,1.8679501,8.91405,-0.278,0.433,-0.791,-0.225,1.432,9.698,-0.0627,0.1920875,-0.145475,0.070111,-0.024169,-0.467849,0.880691,0
5362,-0.94200003,1.9420501,9.549001,-0.592,0.484,-0.174,-0.337,1.434,9.695,-0.14795,0.1027125,-0.0719125,0.072807,-0.019466,-0.468762,0.880103,0
5401,-0.33195,2.5410001,9.573001,0.039,1.072,-0.128,-0.366,1.461,9.69,0.028875,-0.013475,0.076175,0.074812,-0.018373,-0.466328,0.88125,0
5441,-0.16695,2.6250002,9.23505,0.171,1.094,-0.468,-0.333,1.562,9.675,0.064075,-0.063525,-0.0176,0.078729,-0.021969,-0.462407,0.882892,0
5481,-0.29595003,2.32995,9.75195,0.019,0.7,0.099,-0.289,1.629,9.666,0.0374,-0.15619999,-0.196625,0.080753,-0.025464,-0.461538,0.88307,0
5522,-0.79905003,1.8180001,9.814051,-0.51,0.183,0.089,-0.278,1.656,9.661,-0.106425,-0.0848375,-0.2541,0.081624,-0.026896,-0.464535,0.881374,0
5561,-0.79605,1.55505,11.043,-0.474,-0.018,1.357,-0.315,1.571,9.674,-0.155375,0.03135,-0.1881,0.078548,-0.023562,-0.468511,0.879642,0
5601,0.036000002,1.014,10.897051,0.324,-0.499,1.21,-0.297,1.507,9.685,-0.122375,-0.1678875,-0.2935625,0.075086,-0.023161,-0.472568,0.877783,0
5641,-0.36495003,0.01995,12.096001,-0.058,-1.315,2.383,-0.296,1.329,9.711,-0.462275,0.1346125,-0.3925625,0.066868,-0.019369,-0.479204,0.874938,0
5682,-0.633,-0.049050003,12.26805,-0.285,-1.221,2.529,-0.341,1.18,9.729,0.0726,0.0143,-0.20405,0.061212,-0.014029,-0.484394,0.872592,0
5721,-0.99705005,0.85800004,8.28195,-0.606,-0.42,-1.434,-0.388,1.278,9.715,0.587125,0.036575,-0.0378125,0.067208,-0.014763,-0.486294,0.871081,0
5761,-0.10695001,1.1719501,7.4269505,0.267,-0.262,-2.271,-0.359,1.436,9.694,0.114125,-0.13915,-0.0048125,0.073048,-0.019575,-0.486295,0.870515,0
5801,0.72795004,0.23505001,9.87195,1.053,-1.138,0.156,-0.332,1.362,9.705,-0.3898125,0.002475,-0.1742125,0.06937,-0.019433,-0.487685,0.870041,0
5842,-0.123,-0.32595003,11.710951,0.225,-1.502,1.971,-0.348,1.189,9.728,-0.21505,0.2006125,-0.246675,0.061635,-0.014453,-0.491767,0.868422,0
5881,-0.47100002,0.42495003,9.667951,-0.026,-0.773,-0.066,-0.436,1.196,9.723,0.3762,0.1920875,-0.025024999,0.06445,-0.010808,-0.493843,0.867091,0
5921,-0.55395,1.332,7.9230003,-0.1,-0.006,-1.792,-0.439,1.332,9.705,0.25685,-0.22013749,0.0814,0.0703,-0.014175,-0.493294,0.8669,0
5961,0.61095005,1.3939501,8.30805,0.926,0.007,-1.394,-0.327,1.382,9.703,0.0331375,0.0121,0.111237496,0.069732,-0.020237,-0.491245,0.867989,0
6002,-0.279,1.3729501,9.052951,0.069,0.028,-0.702,-0.356,1.357,9.705,-0.1969,0.0493625,0.0378125,0.069372,-0.018231,-0.490303,0.868594,0
6041,0.34695002,1.2940501,9.89595,0.677,-0.002,0.173,-0.318,1.293,9.715,-0.0862125,0.0100375,0.111237496,0.065607,-0.018213,-0.488733,0.869772,0
6081,-0.46305,1.8040501,8.826,-0.135,0.457,-0.883,-0.328,1.343,9.708,0.146025,0.0515625,0.089925,0.068113,-0.018896,-0.48714,0.870458,0
6121,-0.016050002,2.0050502,8.59605,0.294,0.58,-1.103,-0.307,1.421,9.698,-0.0680625,-0.0518375,0.13255,0.071157,-0.021571,-0.484724,0.8715,0
6161,-0.32205,1.79595,9.802051,0.001,0.39,0.035,-0.288,1.389,9.703,-0.2363625,0.0567875,0.1049125,0.069457,-0.021637,-0.482949,0.87262,0
6202,-0.31695002,1.8510001,10.915951,0.008,0.514,1.198,-0.321,1.323,9.711,-0.17985,0.1527625,0.21779999,0.067226,-0.018135,-0.480093,0.874449,0
6241,-0.53295004,2.01705,10.39395,-0.176,0.658,0.658,-0.341,1.357,9.706,0.08745,-0.0347875,0.27101249,0.06931,-0.017743,-0.475659,0.876715,0
6281,-0.564,1.9810501,10.83705,-0.237,0.571,1.127,-0.321,1.403,9.7,0.028875,0.038775,0.3903625,0.071027,-0.019357,-0.470276,0.879443,0
6321,0.21300001,1.9069501,10.16895,0.484,0.473,0.521,-0.319,1.446,9.694,-9.63E-04,-0.00605,0.4191,0.073113,-0.019856,-0.462732,0.883254,0
6361,0.24705002,0.52500004,11.991,0.475,-0.835,2.275,-0.23,1.352,9.71,-0.408925,-0.0518375,0.1709125,0.066819,-0.021288,-0.458111,0.886124,0
6402,-0.82500005,-0.08400001,12.276001,-0.554,-1.241,2.537,-0.262,1.159,9.734,0.027775,0.18259999,0.2156,0.05884,-0.015062,-0.455173,0.888328,0
6441,-1.0690501,0.48900002,9.276,-0.74,-0.749,-0.448,-0.319,1.236,9.723,0.53061247,-0.0763125,0.360525,0.063343,-0.013605,-0.450269,0.890539,0
6481,-0.22605,0.89895004,7.7860503,0.01,-0.495,-1.913,-0.221,1.398,9.703,0.214225,-0.34045,0.2380125,0.069065,-0.021729,-0.444568,0.892813,0
6521,-0.022950001,0.22605,9.91005,0.121,-1.115,0.187,-0.135,1.333,9.714,-0.359975,0.02805,0.06435,0.064128,-0.024036,-0.442491,0.894153,0
6562,-0.52995,0.31695002,10.924951,-0.339,-0.854,1.188,-0.177,1.168,9.735,0.0064625,0.1122,-0.0081125,0.056693,-0.01725,-0.442145,0.894983,0
6601,-1.27695,0.85995007,8.838,-0.98,-0.322,-0.905,-0.288,1.185,9.73,0.25685,0.1079375,0.06765,0.060526,-0.013608,-0.441995,0.894869,0
6641,-0.78405005,1.2529501,8.2890005,-0.42,-0.02,-1.435,-0.355,1.277,9.716,0.2046,0.0185625,0.158125,0.06641,-0.012365,-0.439764,0.895569,0
6681,-0.68100005,1.5949501,8.0140505,-0.304,0.247,-1.697,-0.376,1.345,9.706,-0.0339625,0.004675,0.082499996,0.070271,-0.012877,-0.437531,0.89636,0
6722,-0.22200002,1.5810001,9.481951,0.175,0.257,-0.311,-0.394,1.318,9.709,-0.1852125,0.072875,0.0143,0.069424,-0.01137,-0.436411,0.896992,0
6761,-1.0189501,1.7989501,9.0720005,-0.566,0.485,-0.637,-0.444,1.313,9.708,-0.0265375,0.0334125,-0.0325875,0.070317,-0.008999,-0.436883,0.89672,0
6801,-0.34905002,2.01705,8.998051,0.111,0.664,-0.713,-0.45,1.351,9.702,-0.039325,-0.04015,0.076175,0.072247,-0.009455,-0.436286,0.896852,0
6842,-0.38700002,2.23005,9.03405,0.074,0.828,-0.666,-0.458,1.391,9.696,-0.0254375,0.1420375,-0.0081125,0.074216,-0.0101,-0.435445,0.897093,0
6881,0.27105,2.1319501,9.65205,0.736,0.68,-0.044,-0.477,1.444,9.687,0.0320375,-0.0017875,-0.113575,0.077115,-0.01033,-0.435678,0.896733,0
6921,-0.54,1.74405,9.336,-0.091,0.253,-0.352,-0.445,1.497,9.681,-0.0158125,4.13E-04,-0.41387498,0.078798,-0.013382,-0.44043,0.894222,0
6961,-1.179,1.50405,10.51605,-0.612,0.067,0.829,-0.565,1.424,9.686,-0.28215,0.2602875,-0.3584625,0.078083,-0.006861,-0.447469,0.890857,0
7001,-1.0500001,1.31505,12.42195,-0.382,0.004,2.724,-0.666,1.302,9.696,-0.21725,0.0430375,-0.3905,0.074824,5.40E-05,-0.453461,0.888129,0
7042,-0.54495,0.906,12.07005,0.049,-0.349,2.358,-0.594,1.248,9.708,-0.021175,-0.4736875,-0.40645,0.070611,-0.00255,-0.461061,0.88455,0
7081,0.51495004,-0.05595,12.783001,0.985,-1.182,3.019,-0.453,1.138,9.729,-0.1596375,-0.0666875,-0.3680875,0.062248,-0.0068,-0.467985,0.881515,0
7121,-0.46305,0.324,11.233951,0.07,-0.801,1.626,-0.481,1.105,9.732,0.39214998,0.122925,-0.2743125,0.061396,-0.005173,-0.473762,0.878494,0
7161,-0.33195,0.73800004,7.8580503,0.125,-0.598,-1.859,-0.452,1.334,9.704,0.7788,-0.4236375,-0.1560625,0.070947,-0.012339,-0.477161,0.875859,0
7201,0.51705,0.492,7.4560504,0.817,-1.02,-2.234,-0.3,1.51,9.684,0.064075,-0.1775125,-0.2946625,0.075082,-0.023849,-0.48109,0.873124,0
7242,-0.15,0.29505002,9.73995,0.181,-1.128,0.04,-0.33,1.414,9.698,-0.2267375,0.1368125,-0.3212,0.071364,-0.020515,-0.486661,0.870429,0
7281,-0.53295004,0.48195,8.79405,-0.164,-0.812,-0.929,-0.369,1.287,9.714,0.027775,0.0419375,-0.298925,0.066571,-0.016171,-0.491991,0.8679,0
7321,-1.31805,1.0210501,8.10705,-0.846,-0.254,-1.609,-0.461,1.262,9.714,-0.1255375,0.0823625,-0.10505,0.067721,-0.011621,-0.49598,0.86561,0
7361,-0.67695004,1.1209501,9.096001,-0.161,-0.063,-0.637,-0.505,1.18,9.722,-0.3014,-0.0603625,0.141075,0.064921,-0.007444,-0.49552,0.866134,0
7401,0.072000004,1.1380501,10.16895,0.516,0.065,0.422,-0.448,1.065,9.738,-0.2864125,-0.1029875,0.2220625,0.058333,-0.006896,-0.492374,0.868399,0
7442,-0.19800001,1.43505,9.711,0.197,0.419,-0.035,-0.387,1.01,9.746,-0.038225,-0.0581625,0.243375,0.054699,-0.007988,-0.48878,0.870653,0
7481,-0.034950003,1.7920501,9.0390005,0.314,0.717,-0.712,-0.34,1.066,9.742,-0.037125,-0.014575,0.243375,0.056113,-0.011201,-0.484331,0.873011,0
7521,0.097950004,1.8349501,9.382951,0.406,0.729,-0.369,-0.311,1.094,9.74,-0.07865,0.0356125,0.1890625,0.056659,-0.012944,-0.480448,0.875094,0
7561,0.13395001,1.7580001,9.831,0.399,0.644,0.067,-0.29,1.112,9.739,-0.0413875,0.0504625,0.117699996,0.056964,-0.014096,-0.477697,0.876562,0
7602,0.072000004,1.7490001,10.19295,0.329,0.601,0.426,-0.289,1.157,9.733,0.100237496,0.0686125,0.1101375,0.058915,-0.015189,-0.47574,0.877478,0
7642,0.29895002,1.96395,9.982051,0.561,0.695,0.22,-0.261,1.256,9.722,0.0991375,0.0803,0.1518,0.062849,-0.018677,-0.473068,0.878582,0
7681,-0.076050006,2.02905,10.71195,0.23,0.708,0.992,-0.287,1.322,9.712,0.1161875,0.1665125,0.1868625,0.066561,-0.018877,-0.469921,0.879992,0
7721,-0.33900002,2.0650501,10.309951,-0.024,0.647,0.596,-0.302,1.409,9.7,0.0757625,4.13E-04,0.2476375,0.070926,-0.019966,-0.465919,0.881753,0
7761,0.10095,1.164,11.845051,0.329,-0.242,2.132,-0.227,1.396,9.704,-0.18095,-0.2765125,0.2156,0.068669,-0.02274,-0.461928,0.883962,0
7801,-0.08505,0.26700002,13.102051,0.06,-1.018,3.367,-0.141,1.246,9.726,-0.08195,0.070675,0.19965,0.059872,-0.022866,-0.458858,0.886194,0
7842,-0.78405005,0.606,10.417951,-0.571,-0.686,0.686,-0.204,1.285,9.719,0.501875,0.0567875,0.2987875,0.063232,-0.02063,-0.454604,0.888206,0
7881,-0.88695,0.92295,8.11905,-0.649,-0.556,-1.48,-0.193,1.479,9.692,0.535975,-0.0262625,0.2561625,0.071985,-0.025245,-0.449302,0.890116,0
7921,-1.0570501,0.88905007,8.11905,-0.863,-0.711,-1.556,-0.184,1.597,9.673,0.047025,0.0430375,0.2124375,0.077317,-0.028054,-0.445382,0.891554,0
7962,-0.32895002,0.49395,9.70695,-0.134,-1.059,0.016,-0.192,1.549,9.681,-0.2129875,0.086625,0.1623875,0.075425,-0.026291,-0.441809,0.893545,0
8001,-0.60195005,0.47205,10.434001,-0.348,-0.94,0.73,-0.252,1.404,9.702,0.0182875,0.1164625,0.09955,0.070119,-0.020102,-0.440045,0.895007,0
8041,-0.64995,0.87705004,8.842051,-0.333,-0.548,-0.858,-0.306,1.42,9.698,0.15565,0.124025,0.1197625,0.071924,-0.017859,-0.43834,0.895748,0
8081,-0.09195001,1.116,9.08895,0.274,-0.304,-0.611,-0.356,1.421,9.696,-0.054175,0.1601875,0.10065,0.073321,-0.015378,-0.435874,0.896884,0
8122,-0.87795,1.3750501,9.163051,-0.454,-0.034,-0.544,-0.417,1.397,9.697,0.028875,0.1271875,0.0281875,0.07358,-0.011952,-0.434926,0.897375,0
8161,-0.60495,1.674,8.78505,-0.132,0.223,-0.904,-0.468,1.44,9.689,0.010725,0.0834625,0.088825,0.076736,-0.010445,-0.433629,0.897757,0
8201,-0.528,1.9879501,8.833051,-0.005,0.495,-0.854,-0.513,1.48,9.68,0.0598125,0.0419375,0.022824999,0.079564,-0.009208,-0.43231,0.89816,0
8241,-0.35595003,2.09805,8.835,0.115,0.547,-0.845,-0.467,1.55,9.671,0.0363,-0.1370875,-0.1219625,0.081884,-0.012815,-0.433079,0.897537,0
8282,-0.69105005,2.124,9.594001,-0.222,0.513,-0.131,-0.485,1.584,9.665,0.0268125,0.0078375,-0.094325,0.083796,-0.013053,-0.43527,0.896296,0
8321,0.07395,2.25795,9.25905,0.511,0.594,-0.407,-0.427,1.674,9.653,0.1513875,-0.1764125,-0.2083125,0.08663,-0.017979,-0.437416,0.894896,0
8361,-0.492,2.2750502,9.405001,-0.104,0.538,-0.245,-0.384,1.735,9.644,-0.057475,-0.1285625,-0.2882,0.088347,-0.021826,-0.442313,0.892231,0
8401,-0.37500003,2.1000001,10.971001,0.03,0.38,1.245,-0.371,1.701,9.65,-0.105325,-0.0347875,-0.3276625,0.086458,-0.022193,-0.447397,0.889869,0
8442,-0.97605,2.2009501,10.48005,-0.575,0.506,0.88,-0.391,1.715,9.647,0.1087625,-0.095425,-0.397925,0.087244,-0.022116,-0.453768,0.886563,0
8481,-0.64995,1.404,10.35105,-0.326,-0.286,0.651,-0.363,1.727,9.646,-0.132,-0.3564,-0.41181248,0.086973,-0.024509,-0.461579,0.882484,0
8521,-0.21705002,0.62100005,13.485001,0.073,-0.874,3.654,-0.305,1.531,9.681,-0.5069625,0.0121,-0.3276625,0.076485,-0.023054,-0.469052,0.87955,0
8562,-0.43995002,0.64500004,11.454,-0.009,-0.861,2,-0.374,1.494,9.684,0.3782625,0.124025,-0.2520375,0.076382,-0.019437,-0.473408,0.877309,0
8601,-1.1190001,1.0519501,8.11695,-0.71,-0.646,-1.546,-0.408,1.706,9.648,0.6105,0.0567875,-0.1582625,0.086697,-0.02346,-0.476757,0.874434,0
8641,-0.39900002,1.28205,7.794,0.025,-0.582,-1.828,-0.42,1.863,9.618,0.2121625,-0.0507375,-0.0207625,0.09407,-0.026944,-0.477798,0.873002,0
8681,0.73305005,0.81705004,9.084001,1.113,-1.031,-0.551,-0.391,1.848,9.622,-0.240625,-0.0507375,-0.143275,0.092892,-0.028074,-0.47901,0.872428,0
8721,-0.20205002,0.65400004,11.056951,0.223,-1.021,1.392,-0.414,1.675,9.653,-0.3716625,0.1687125,-0.17847499,0.085297,-0.023016,-0.482629,0.871357,0
8762,-0.45105,1.2100501,10.090051,0.044,-0.39,0.414,-0.494,1.589,9.664,0.2014375,0.137775,0.06765,0.083164,-0.017341,-0.48316,0.8714,0
8801,-0.27195,1.8829501,7.8700504,0.171,0.172,-1.787,-0.443,1.707,9.646,0.2589125,-0.19139999,0.1304875,0.087514,-0.022333,-0.481173,0.87196,0
8841,-0.32895002,1.9450501,8.526,0.064,0.156,-1.11,-0.391,1.777,9.636,-0.040425,-0.046475,0.1975875,0.089431,-0.026181,-0.478651,0.873046,0
8881,0.25905,1.79595,9.276,0.578,0.013,-0.364,-0.319,1.77,9.64,-0.099,-0.0891,0.1868625,0.087497,-0.028883,-0.475058,0.875116,0
8921,-0.21405001,1.8589501,8.93595,0.053,0.102,-0.71,-0.257,1.75,9.645,-0.095699996,-0.0485375,0.13475,0.085125,-0.03094,-0.472717,0.876546,0
8961,-0.53295004,2.1319501,9.357,-0.25,0.402,-0.292,-0.28,1.722,9.65,-0.1436875,0.1079375,0.277475,0.084521,-0.028896,-0.469389,0.878461,0
9002,-0.52995,2.38995,9.295051,-0.233,0.659,-0.36,-0.283,1.723,9.649,-0.0319,0.0089375,0.3051125,0.084835,-0.028245,-0.463775,0.881428,0
9041,-1.3230001,2.4790502,9.016951,-0.978,0.69,-0.619,-0.346,1.79,9.635,-0.056375,0.1155,0.4191,0.089394,-0.026601,-0.458217,0.883932,0
9081,-1.04505,2.364,9.901051,-0.621,0.554,0.257,-0.413,1.801,9.63,-0.0743875,0.1612875,0.6001875,0.091916,-0.022708,-0.449123,0.888439,0
9121,-1.27695,1.95,10.437,-0.815,0.133,0.806,-0.451,1.814,9.626,0.0160875,0.072875,0.7216,0.093633,-0.020121,-0.437826,0.893944,0
9161,-1.9050001,1.8180001,10.38405,-1.378,-0.02,0.758,-0.517,1.833,9.619,0.0490875,0.356125,0.94105,0.096322,-0.015873,-0.4226,0.901043,0
9202,-0.63105005,2.043,10.461,-0.166,0.211,0.741,-0.588,1.858,9.611,-0.1533125,-0.1923625,1.1499125,0.099256,-0.01106,-0.403618,0.90946,0
9241,0.61995006,0.49605003,13.1970005,1.005,-1.229,3.537,-0.388,1.712,9.648,-0.4686,-0.0177375,0.898425,0.088963,-0.015676,-0.38663,0.917799,0
9281,-0.66,0.003,12.264001,-0.248,-1.578,2.458,-0.446,1.605,9.663,0.1577125,0.3796375,0.97845,0.084785,-0.009232,-0.369249,0.925408,0
9322,-0.63795,0.88395005,8.78205,-0.158,-0.88,-0.735,-0.451,1.735,9.641,0.5423,0.06325,1.0157125,0.09132,-0.009635,-0.350629,0.932001,0
9361,-0.60495,1.09695,7.497,-0.235,-0.81,-2.122,-0.356,1.903,9.613,0.15565,-0.2008875,0.8815125,0.098029,-0.015473,-0.333512,0.937507,0
9401,0.048,0.40800002,9.987,0.312,-1.419,0.35,-0.271,1.803,9.635,-0.3696,0.171875,0.6939625,0.091949,-0.01646,-0.319214,0.943067,0
9441,-1.1050501,0.42195,10.717051,-0.716,-1.255,1.124,-0.363,1.636,9.662,-0.006325,0.33165,0.6587625,0.085415,-0.008154,-0.307296,0.947737,0
9481,-0.66,1.1040001,8.658,-0.237,-0.566,-1.005,-0.416,1.67,9.654,0.28875,0.06325,0.7216,0.087968,-0.004865,-0.294099,0.951705,0
9521,-0.61005,1.46595,8.28195,-0.205,-0.31,-1.387,-0.435,1.742,9.64,0.097075,0.16445,0.67485,0.091889,-0.003822,-0.281312,0.955198,0
9561,-0.33405003,1.6459501,8.6959505,0.102,-0.131,-0.946,-0.427,1.767,9.636,-0.0083875,0.0270875,0.5352875,0.093029,-0.003451,-0.269692,0.958435,0
9601,-1.107,1.5829501,9.30195,-0.664,-0.168,-0.362,-0.422,1.762,9.637,0.0044,-0.0677875,0.50435,0.092753,-0.002868,-0.260203,0.961084,0
9641,-1.0360501,1.6099501,8.679001,-0.643,-0.194,-0.958,-0.386,1.79,9.634,0.078925,-0.14135,0.5597625,0.093669,-0.003748,-0.251541,0.963295,0
9681,-0.86805004,1.725,9.25605,-0.518,-0.078,-0.386,-0.339,1.794,9.635,-0.0339625,-0.0677875,0.5660875,0.093384,-0.00534,-0.240861,0.966041,0
9722,-0.03705,2.0959501,9.59895,0.271,0.283,-0.046,-0.298,1.8,9.635,-0.0105875,-0.014575,0.564025,0.09325,-0.006462,-0.230192,0.968645,0
9761,0.29700002,2.50305,9.21105,0.517,0.634,-0.418,-0.231,1.857,9.626,0.0331375,0.011,0.4574625,0.095413,-0.009482,-0.220261,0.970716,0
9801,0.04095,2.7540002,9.199051,0.231,0.842,-0.423,-0.19,1.908,9.617,-0.1021625,0.039875,0.291225,0.097595,-0.011408,-0.213098,0.972077,0
9841,0.117000006,2.6130002,10.2960005,0.278,0.704,0.663,-0.169,1.897,9.619,-0.11605,0.020624999,0.20927499,0.096865,-0.011847,-0.208244,0.973196,0
9881,-0.28095,2.421,10.22595,-0.138,0.518,0.593,-0.132,1.89,9.621,-0.0947375,-0.046475,0.1186625,0.096159,-0.013286,-0.205076,0.97392,0
9922,-0.73605,2.1990001,10.438951,-0.554,0.331,0.822,-0.155,1.872,9.624,-0.11385,0.0430375,0.141075,0.095553,-0.011733,-0.202824,0.974471,0
9961,-0.63795,1.725,10.615951,-0.451,-0.091,0.973,-0.171,1.801,9.638,-0.2992,-0.14973749,0.2508,0.092472,-0.009813,-0.199864,0.9754,0
10001,0.60795003,0.94395006,12.976951,0.654,-0.639,3.226,-0.069,1.619,9.671,-0.3535125,-0.097625,0.3243625,0.08196,-0.012718,-0.194634,0.977362,0
10042,-0.058950003,0.87705004,11.236051,0.028,-0.688,1.73,-0.029,1.553,9.682,0.3356375,0.0686125,0.278575,0.078288,-0.013544,-0.1884,0.978873,0
10081,-0.27195,0.96105003,8.706,-0.237,-0.723,-0.958,-0.034,1.685,9.66,0.4357375,0.036575,0.3306875,0.085117,-0.014081,-0.182633,0.979388,0
10121,-0.29295,0.82395005,9.024,-0.255,-0.961,-0.627,-0.029,1.779,9.643,0.0715,0.0270875,0.292325,0.08995,-0.014673,-0.176637,0.980047,0
10161,0.28005,0.441,10.056001,0.311,-1.274,0.324,-0.027,1.695,9.658,-0.0754875,0.1665125,0.2369125,0.085708,-0.013519,-0.171266,0.981396,0
10202,-0.06795,0.70905006,10.01805,0.02,-0.914,0.339,-0.088,1.623,9.67,0.12265,0.29975,0.1837,0.082625,-0.009461,-0.167081,0.982429,0
10241,-0.86295,1.2790501,8.233951,-0.66,-0.36,-1.489,-0.21,1.668,9.661,0.230175,0.2294875,0.2880625,0.086001,-0.003302,-0.162664,0.98292,0
10281,-0.29295,1.49205,8.26305,-0.028,-0.248,-1.409,-0.3,1.721,9.649,0.080025,0.19635,0.47025,0.089449,0.001479,-0.15495,0.983863,0
10321,-0.48495004,1.5640501,8.998051,-0.14,-0.153,-0.711,-0.336,1.732,9.646,-0.04675,0.0845625,0.564025,0.090277,0.004106,-0.14505,0.985288,0
10361,0.22005,1.57395,9.481951,0.505,-0.142,-0.172,-0.287,1.708,9.652,-0.0595375,0.0185625,0.716375,0.088637,0.002969,-0.132448,0.987214,0
10402,0.04605,1.78005,9.25605,0.321,0.085,-0.38,-0.239,1.697,9.655,-0.040425,0.1122,0.6535375,0.087741,0.001814,-0.118757,0.989037,0
10441,-0.37005,1.9039501,9.130051,-0.134,0.187,-0.528,-0.233,1.705,9.654,-0.072325,0.109037496,0.697125,0.088072,0.002585,-0.105963,0.990458,0
10481,0.108,1.9210501,9.393001,0.316,0.222,-0.271,-0.221,1.697,9.656,-0.072325,0.16445,0.713075,0.087577,0.003277,-0.09163,0.991929,0
10521,0.120000005,1.84905,9.340051,0.326,0.128,-0.323,-0.217,1.71,9.653,0.047025,0.1698125,0.664125,0.088159,0.004242,-0.078068,0.993033,0
10562,0.00495,2.09295,9.58905,0.198,0.328,-0.057,-0.198,1.754,9.646,0.047025,-0.0070125,0.7462125,0.090318,0.004327,-0.064615,0.993805,0
10601,0.9979501,2.1990001,10.248,1.099,0.405,0.6,-0.105,1.787,9.641,-0.0286,0.03025,0.7525375,0.091652,8.42E-04,-0.049485,0.99456,0
10641,-0.054,2.06205,11.0449505,0,0.267,1.39,-0.055,1.79,9.641,0.045925,0.2006125,0.6172375,0.091665,-5.66E-04,-0.036057,0.995136,0
10681,-0.25800002,1.93305,9.924001,-0.184,0.08,0.283,-0.055,1.842,9.631,0.113025,-0.1167375,0.67485,0.094286,8.41E-04,-0.023753,0.995261,0
10722,-0.05595,0.98205006,11.32005,-0.069,-0.713,1.508,0.042,1.762,9.646,-0.4717625,-0.0209,0.5000875,0.089709,-0.003344,-0.011971,0.99589,0
10761,-1.1839501,0.20205002,12.43095,-1.173,-1.333,2.734,-0.001,1.52,9.688,-0.1522125,0.27307498,0.6161375,0.077923,-2.96E-04,-0.002502,0.996956,0
10801,-0.71205,1.131,9.187051,-0.592,-0.373,-0.509,-0.116,1.508,9.689,0.2866875,0.0771375,0.7781125,0.076827,0.006818,0.011592,0.996953,0
10842,-0.231,1.14495,8.055,-0.188,-0.442,-1.627,-0.043,1.586,9.677,0.0490875,-0.096525,0.595925,0.081074,0.004295,0.025645,0.996368,0
10881,-0.717,0.82005006,9.481951,-0.626,-0.684,-0.21,-0.086,1.494,9.691,-0.38555,0.3306875,0.461725,0.076227,0.007162,0.035634,0.996427,0
10922,-0.73905003,0.70005006,10.7029505,-0.518,-0.632,0.977,-0.216,1.327,9.713,-0.19373749,0.2272875,0.493625,0.067263,0.014136,0.04503,0.996618,0
10961,-0.39600003,0.86505,9.77805,-0.088,-0.427,0.128,-0.256,1.276,9.719,0.1194875,0.1101375,0.4596625,0.064406,0.016688,0.054705,0.996283,0
11001,-0.74595004,1.128,9.213,-0.427,-0.195,-0.506,-0.307,1.312,9.713,0.077825,0.106975,0.428725,0.065965,0.019931,0.063053,0.995628,0
11041,-0.33705002,1.2270001,9.41205,0.011,-0.096,-0.299,-0.339,1.322,9.711,0.0033,0.12925,0.43614998,0.066168,0.022186,0.071635,0.994986,0
11081,-0.49695003,1.31505,9.288,-0.085,-0.02,-0.461,-0.365,1.328,9.709,-0.0105875,0.1155,0.319,0.066209,0.023985,0.079046,0.99438,0
11121,-0.55905,1.4280001,9.55605,-0.187,0.059,-0.16,-0.398,1.33,9.707,0.0064625,0.06435,0.3562625,0.065998,0.026118,0.08539,0.993816,0
11162,-0.147,1.6339501,8.979,0.253,0.244,-0.726,-0.389,1.376,9.701,0.081125,0.02915,0.278575,0.068217,0.026298,0.091942,0.993076,0
11201,-0.64095,1.7530501,9.29205,-0.248,0.337,-0.408,-0.392,1.405,9.697,-0.08085,0.03135,0.2135375,0.069607,0.026889,0.09626,0.992555,0
11241,-0.588,1.9950001,9.39105,-0.178,0.566,-0.309,-0.407,1.422,9.694,0.061875,-0.0070125,0.2880625,0.070239,0.02811,0.101258,0.991979,0
11282,-0.25800002,2.361,9.07905,0.104,0.854,-0.613,-0.349,1.502,9.684,1.38E-04,-0.17435,0.2539625,0.07449,0.025957,0.106376,0.991191,0
11321,-0.27405003,2.3760002,10.02495,0.022,0.813,0.346,-0.295,1.556,9.677,-0.045649998,-0.0422125,0.193325,0.077429,0.023843,0.110589,0.990558,0
11361,-0.06795,2.2440002,10.42695,0.172,0.644,0.745,-0.24,1.589,9.674,0.028875,-0.1519375,0.124025,0.079374,0.021502,0.113584,0.990119,0
11401,-0.123,2.30205,10.626,0.049,0.664,0.956,-0.169,1.639,9.667,0.095975,-0.14025,0.0867625,0.082211,0.018456,0.115315,0.989748,0
11442,-0.171,1.9860001,9.924001,-0.037,0.291,0.271,-0.109,1.698,9.657,0.0746625,-0.1274625,0.03025,0.085576,0.015819,0.116207,0.989404,0
11481,-0.08295,0.99000007,10.609051,-0.009,-0.671,0.93,-0.07,1.624,9.67,-0.36313748,-0.154,-0.0559625,0.082148,0.013239,0.115809,0.989779,0
11521,-0.51600003,0.52695,13.044001,-0.452,-0.896,3.33,-0.051,1.409,9.704,-0.24805,0.0237875,0.1197625,0.071246,0.010978,0.11563,0.990672,0
11561,0.049950004,1.023,10.23795,0.127,-0.421,0.661,-0.06,1.425,9.702,0.468875,0.06325,0.24653749,0.071948,0.011845,0.12022,0.990065,0
11601,-0.54705,1.2790501,8.31795,-0.502,-0.349,-1.364,-0.039,1.626,9.67,0.549725,-0.098725,0.2391125,0.082321,0.01242,0.124421,0.98873,0
11641,0.63195,1.21905,8.442,0.691,-0.543,-1.135,0.016,1.755,9.648,0.12045,-0.0433125,0.277475,0.089239,0.01084,0.129478,0.987498,0
11681,0.88305,0.61800003,10.078051,0.802,-1.076,0.405,0.07,1.684,9.66,-0.087175,0.06215,-0.03355,0.085918,0.007871,0.132447,0.987427,0
11721,-0.92805004,0.17595,10.968,-0.872,-1.416,1.313,0.001,1.579,9.678,0.05335,0.1516625,0.0473,0.08011,0.010583,0.131315,0.988041,0
11762,-0.31500003,0.83895004,8.799001,-0.25,-0.796,-0.767,-0.091,1.606,9.673,0.35915,0.16555,0.3881625,0.080794,0.015895,0.136379,0.987228,0
11801,-0.37005,1.263,7.6260004,-0.207,-0.393,-2.032,-0.133,1.687,9.659,0.12155,0.1260875,0.446875,0.084463,0.019281,0.144466,0.985709,0
11841,0.31800002,1.26495,8.967,0.453,-0.403,-0.702,-0.126,1.644,9.666,-0.2215125,0.104775,0.496925,0.082143,0.019417,0.153922,0.984471,0
11881,0.34995002,1.38495,9.331051,0.455,-0.213,-0.296,-0.1,1.56,9.681,-0.1032625,0.0356125,0.4222625,0.077888,0.018123,0.163058,0.98337,0
11921,0.079050004,1.6789501,8.73705,0.184,0.163,-0.983,-0.077,1.521,9.687,-0.22247499,0.1527625,0.444675,0.075966,0.017265,0.171308,0.982132,0
11961,-0.034950003,1.9740001,9.11505,0.097,0.512,-0.586,-0.124,1.449,9.698,-0.2715625,0.1750375,0.5182375,0.071701,0.0197,0.18086,0.980693,0
12002,0.33795002,2.079,9.856951,0.441,0.682,0.14,-0.115,1.387,9.707,-0.242825,0.1122,0.493625,0.068501,0.01936,0.191027,0.979,0
12041,0.08595,2.11995,9.805051,0.185,0.722,0.126,-0.118,1.389,9.706,-0.0680625,0.14533749,0.5267625,0.068358,0.020223,0.20077,0.977041,0
12082,0.53595,2.22705,9.570001,0.621,0.798,-0.141,-0.09,1.421,9.702,-0.054175,0.1186625,0.4915625,0.070066,0.019894,0.210983,0.974772,0
12121,0.049950004,2.18205,10.18305,0.159,0.735,0.475,-0.118,1.443,9.699,-0.0350625,0.2156,0.4989875,0.070651,0.022215,0.220293,0.972618,0
12161,0.42900002,1.9020001,10.34805,0.547,0.401,0.646,-0.125,1.491,9.691,0.128975,0.0908875,0.564025,0.072819,0.023946,0.231143,0.969895,0
12201,0.21795002,1.7220001,10.320001,0.325,0.153,0.629,-0.107,1.562,9.68,0.165275,0.2209625,0.5608625,0.076212,0.024713,0.241439,0.967102,0
12241,-0.29295,1.725,9.955951,-0.138,0.085,0.273,-0.146,1.633,9.668,0.13213749,0.0259875,0.628925,0.078951,0.028464,0.253117,0.963788,0
12281,0.57000005,0.99195004,10.719001,0.61,-0.62,1.044,-0.049,1.596,9.675,-0.2470875,-0.031625,0.511775,0.078286,0.024266,0.263886,0.961065,0
12321,-0.873,0.537,11.670001,-0.777,-0.904,1.958,-0.098,1.431,9.701,-0.2332,0.3029125,0.47134998,0.069017,0.024917,0.273306,0.959124,0
12361,0.07395,0.48405004,10.59195,0.194,-0.881,0.871,-0.126,1.358,9.711,0.094875,-0.0336875,0.63855,0.063725,0.025236,0.284511,0.956219,0
12401,-0.63795,0.92295,8.928,-0.447,-0.478,-0.72,-0.139,1.367,9.709,0.2259125,0.16445,0.5330875,0.064662,0.027524,0.295338,0.952804,0
12441,-0.46800002,0.84795004,8.371051,-0.321,-0.568,-1.339,-0.167,1.414,9.702,0.0735625,-0.0336875,0.4500375,0.06627,0.030229,0.304422,0.949748,0
12482,-0.28905,0.53895,9.4480505,-0.121,-0.797,-0.354,-0.15,1.352,9.711,-0.2193125,0.0334125,0.2849,0.063263,0.028873,0.311205,0.947794,0
12521,-0.68895006,0.35295,10.269,-0.487,-0.867,0.526,-0.196,1.203,9.73,-0.242825,0.1665125,0.1709125,0.055172,0.028962,0.315385,0.946915,0
12561,-0.88995004,0.54705,10.281,-0.621,-0.545,0.567,-0.294,1.072,9.743,-0.1010625,0.13035,0.2209625,0.047103,0.031753,0.318832,0.946107,0
12601,-0.57600003,0.99405,9.592051,-0.216,-0.055,-0.155,-0.355,1.049,9.743,0.027775,0.1516625,0.2880625,0.0448,0.034572,0.323706,0.944463,0
12642,-0.52605003,1.19295,8.90505,-0.121,0.106,-0.817,-0.396,1.079,9.738,0.0320375,0.039875,0.224125,0.04541,0.037254,0.328543,0.94266,0
12681,-0.45405003,1.2390001,9.43395,-0.048,0.14,-0.312,-0.4,1.085,9.738,-0.04895,0.0174625,0.1623875,0.045465,0.037751,0.332085,0.941396,0
12721,0.093,1.18095,9.09405,0.458,0.071,-0.652,-0.376,1.099,9.737,0.0427625,-0.0166375,0.0952875,0.046462,0.036973,0.334691,0.940454,0
12761,-0.04695,1.095,8.397,0.304,-0.041,-1.344,-0.346,1.132,9.734,0.0757625,0.0419375,-0.0655875,0.048491,0.035997,0.335044,0.940264,0
12802,-0.28905,1.0999501,8.47095,0.072,-0.078,-1.271,-0.358,1.168,9.73,0.1076625,-0.0539,-0.0858,0.050136,0.037196,0.333242,0.940772,0
12841,0.19905001,1.33905,8.12205,0.497,0.082,-1.551,-0.305,1.243,9.722,0.2503875,-0.0859375,-0.1167375,0.054485,0.035815,0.331517,0.941193,0
12881,-0.19500001,1.8280501,6.6990004,0.107,0.425,-3.014,-0.298,1.399,9.701,0.364375,0.06435,-0.20625,0.062563,0.037943,0.328214,0.941765,0
12921,-0.10695001,1.96395,7.0920005,0.197,0.357,-2.587,-0.291,1.605,9.669,0.0735625,-0.1252625,-0.3276625,0.072865,0.040742,0.322947,0.942727,0
12961,-0.44895002,1.61205,8.77995,-0.159,-0.008,-0.896,-0.291,1.614,9.668,-0.0328625,0.0419375,-0.4576,0.073687,0.040245,0.315858,0.945084,0
13002,-1.026,1.6480501,9,-0.641,0.016,-0.673,-0.381,1.632,9.662,0.0650375,-0.022,-0.399025,0.073419,0.044288,0.307447,0.947694,0
13041,-0.87000006,1.38195,10.04205,-0.439,-0.275,0.38,-0.418,1.651,9.657,0.180125,0.071775,-0.27335,0.074101,0.045962,0.300859,0.949673,0
13081,-1.2540001,1.7320501,9.762,-0.71,-0.008,0.116,-0.542,1.737,9.636,0.281325,0.170775,-0.1518,0.076841,0.053389,0.296534,0.950427,0
13121,-0.49500003,0.81195,13.035001,0.034,-0.87,3.386,-0.519,1.663,9.65,-0.5388625,-0.3469125,-0.2924625,0.07361,0.050424,0.292543,0.95208,0
13161,-0.07095,-0.40005,16.62795,0.384,-1.86,6.93,-0.456,1.46,9.686,-0.2693625,0.1260875,-0.245575,0.065063,0.0438,0.287628,0.954525,0
13202,-0.79395,0.82005006,11.9740505,-0.282,-0.692,2.43,-0.517,1.499,9.677,0.180125,-0.230725,-0.144375,0.065768,0.04736,0.284081,0.955368,0
13241,-0.04695,0.73605,11.902051,0.338,-0.748,2.204,-0.374,1.48,9.687,-0.1863125,-0.232925,-0.012375,0.067191,0.039764,0.281789,0.956294,0
13281,1.07295,1.9110001,10.968,1.421,0.487,1.267,-0.357,1.416,9.697,-0.16293749,-0.0444125,0.0793375,0.064259,0.038089,0.282925,0.956228,0
13321,0.57195,2.019,9.795,1.021,0.653,0.128,-0.357,1.359,9.705,-0.123475,0.1442375,-0.2105125,0.061508,0.037157,0.281779,0.956784,0
13361,-0.39600003,1.9590001,9.11295,0.005,0.647,-0.608,-0.428,1.326,9.707,-0.040425,0.037675,-0.177375,0.059007,0.039954,0.277957,0.957946,0
13402,0.26295,1.5979501,9.43605,0.654,0.238,-0.278,-0.41,1.355,9.703,0.0352,0.0067375,-0.094325,0.060793,0.039288,0.275796,0.958486,0
13441,0.321,1.5160501,8.610001,0.679,0.097,-1.155,-0.352,1.428,9.695,0.2079,-0.039049998,-0.094325,0.065246,0.037395,0.274251,0.958712,0
13481,0.24705002,1.4419501,8.33205,0.54,-0.064,-1.365,-0.295,1.494,9.687,0.011825,-0.030524999,-0.1560625,0.069415,0.035392,0.272049,0.959123,0
13521,-0.384,1.2049501,8.887951,-0.081,-0.271,-0.81,-0.3,1.47,9.691,-0.0072875,0.089925,-0.1571625,0.068249,0.035072,0.269,0.960078,0
13561,-0.043950003,1.5450001,7.7580004,0.231,0.02,-1.868,-0.325,1.493,9.686,0.0726,-0.0570625,-0.0059125,0.069087,0.036542,0.267441,0.960399,0
13602,-0.43995002,1.3800001,7.7149506,-0.047,-0.13,-2.03,-0.33,1.508,9.684,-0.1522125,0.1953875,-0.094325,0.069837,0.036913,0.266649,0.96055,0
13641,-0.44400004,1.5829501,8.32005,-0.007,0.096,-1.375,-0.428,1.483,9.684,0.08635,0.1527625,0.0941875,0.067227,0.041408,0.266529,0.960587,0
13681,0.12705001,2.15805,6.1750503,0.537,0.515,-3.49,-0.415,1.636,9.66,0.180125,0.03135,0.021724999,0.074912,0.043027,0.268381,0.959431,0
13721,-0.72405005,1.7010001,8.316,-0.275,0.011,-1.343,-0.446,1.677,9.651,-0.171325,0.16445,-0.010175,0.076548,0.045114,0.267786,0.959372,0
13761,-0.27195,1.914,8.739,0.227,0.243,-0.92,-0.499,1.663,9.651,-0.0361625,-0.0336875,0.09845,0.075073,0.047649,0.269137,0.958988,0
13802,-0.33705002,1.33905,11.79195,0.092,-0.301,2.121,-0.419,1.636,9.66,-0.0776875,-0.1892,0.1038125,0.074764,0.043426,0.270582,0.958806,0
13841,-0.09705,1.5499501,11.181001,0.267,-0.155,1.516,-0.361,1.701,9.651,0.3304125,-0.0325875,0.362725,0.078266,0.041777,0.274597,0.957457,0
13881,-0.46305,1.8510001,10.639951,-0.104,0.011,1.009,-0.359,1.835,9.626,0.418825,0.1368125,0.4521,0.084553,0.044144,0.282,0.954661,0
13921,0.120000005,2.5459502,10.446,0.39,0.577,0.841,-0.281,1.955,9.605,-0.0638,-0.4566375,0.40425,0.091756,0.042502,0.290124,0.951631,0
13961,1.8079501,0.56595004,13.864951,1.813,-1.242,4.225,-0.015,1.801,9.639,-0.6411625,-0.402325,-0.0570625,0.087407,0.027409,0.293587,0.951532,0
14002,-0.87000006,0.27405003,14.04705,-0.711,-1.371,4.542,-0.031,1.584,9.677,-0.257675,0.36465,-0.229625,0.077446,0.024819,0.289978,0.953571,0
14041,-1.866,1.31805,10.276051,-1.726,-0.296,0.596,-0.14,1.607,9.672,0.2057,0.03135,0.0452375,0.076467,0.030571,0.288351,0.953976,0
14081,-0.33195,1.5979501,9.25605,-0.271,-0.057,-0.418,-0.05,1.65,9.666,-0.0020625,-0.2594625,0.1645875,0.080047,0.027085,0.290532,0.953126,0
14121,-0.58095,1.7200501,9.89295,-0.556,0.14,0.159,-0.047,1.598,9.675,-0.206525,0.2380125,0.126225,0.07746,0.026329,0.292739,0.952685,0
14161,-0.09,1.4250001,10.293,0.035,-0.137,0.601,-0.117,1.554,9.681,0.0342375,0.1750375,0.06435,0.074152,0.029284,0.295447,0.952026,0
14202,-1.08105,1.4640001,8.79,-0.866,-0.165,-0.884,-0.209,1.622,9.669,0.3037375,0.0567875,0.0111375,0.076125,0.034867,0.295516,0.951661,0
14241,-0.31695002,1.27005,8.16705,-0.062,-0.436,-1.495,-0.252,1.705,9.653,0.128975,0.0814,0.0719125,0.079518,0.038299,0.296218,0.951033,0
14281,-0.49500003,1.33395,9.26595,-0.191,-0.344,-0.395,-0.299,1.678,9.657,-0.156475,0.1101375,-0.0411125,0.077464,0.04021,0.296632,0.950994,0
14321,-0.52995,1.3750501,9.703951,-0.224,-0.243,0.056,-0.348,1.604,9.668,-0.056375,0.037675,0.0165,0.073065,0.041423,0.296201,0.951425,0
14361,-0.291,1.593,8.842051,0.059,-0.02,-0.829,-0.344,1.6,9.668,0.028875,-0.0103125,-0.011275,0.073103,0.04084,0.291502,0.952897,0
14401,-0.68895006,1.863,8.46195,-0.31,0.219,-1.204,-0.37,1.632,9.662,0.0735625,-0.00495,0.0026125,0.074604,0.042147,0.286015,0.954386,0
14442,-0.11595,1.9279501,7.7790003,0.244,0.218,-1.86,-0.366,1.703,9.65,0.12375,-0.045375,-0.0048125,0.078165,0.043004,0.28612,0.954031,0
14481,-0.32205,1.8060001,7.9489503,0.074,0.024,-1.711,-0.348,1.785,9.636,0.0928125,0.0356125,-0.13695,0.082526,0.043268,0.284809,0.954044,0
14522,-0.99300003,1.7719501,7.7910004,-0.568,-0.093,-1.828,-0.411,1.864,9.619,0.2281125,-0.0240625,-0.1145375,0.085619,0.047276,0.281743,0.954492,0
14561,-0.25800002,1.8540001,8.007,0.146,-0.116,-1.603,-0.391,1.969,9.598,0.2079,-0.1370875,-0.0858,0.09122,0.04766,0.279861,0.954507,0
14601,-0.76500005,1.9470001,8.81805,-0.389,-0.089,-0.773,-0.372,2.039,9.584,0.1502875,-0.0528,-0.1475375,0.095112,0.047486,0.276929,0.954991,0
14641,0.27495003,1.7560501,10.41495,0.632,-0.337,0.829,-0.36,2.081,9.576,0.1269125,-0.1945625,-0.093225,0.097484,0.04724,0.274499,0.955465,0
14681,-0.384,2.0740502,12.0720005,-0.108,-0.026,2.491,-0.271,2.099,9.575,0.1428625,-0.098725,-0.3009875,0.099688,0.042746,0.270837,0.956494,0
14722,-0.186,1.9780501,12.010051,0.045,-0.18,2.435,-0.222,2.155,9.564,0.1269125,-0.2712875,-0.0485375,0.103675,0.04045,0.266585,0.957364,0
14761,0.076950006,1.9879501,11.4210005,0.199,-0.165,1.844,-0.132,2.14,9.569,0.0331375,0.0919875,-0.1071125,0.104004,0.035909,0.265502,0.95781,0
14801,-0.26700002,1.8919501,10.281,-0.13,-0.216,0.69,-0.119,2.087,9.581,-0.443025,-0.5396875,-0.1997875,0.101923,0.034759,0.26283,0.958813,0
14841,0.61800003,0.120000005,14.587951,0.696,-1.624,4.878,0.019,1.701,9.657,-0.917125,0.2784375,-0.115637496,0.085305,0.021672,0.259264,0.961787,0
14882,-1.09305,2.1049502,10.446,-0.89,0.405,1.1,-0.219,1.602,9.672,0.3185875,0.3785375,0.207075,0.076178,0.032359,0.261385,0.961679,0
14921,0.18900001,2.8330503,6.3240004,0.308,1.082,-3.328,-0.122,1.754,9.647,0.18865,-0.4492125,0.06545,0.084945,0.029833,0.263852,0.960352,0
14961,0.381,2.1100502,9.172951,0.435,0.432,-0.497,-0.071,1.654,9.665,-0.546425,0.1846625,-0.117837496,0.080697,0.025899,0.26311,0.961035,0
15001,-0.12105001,1.3990501,10.602,0.043,-0.05,0.946,-0.155,1.489,9.691,-0.2363625,0.1271875,-0.1827375,0.071681,0.027528,0.260791,0.962336,0
15042,-0.432,1.2550501,9.51,-0.195,-0.204,-0.188,-0.226,1.457,9.695,0.045925,0.224125,-0.0198,0.068979,0.030507,0.258659,0.963019,0
15081,-0.009000001,1.4610001,8.11005,0.283,-0.044,-1.582,-0.284,1.505,9.686,0.1695375,0.0845625,0.1464375,0.070376,0.034052,0.260305,0.962355,0
15121,0.20595,1.5880501,7.7839503,0.466,-0.004,-1.897,-0.261,1.586,9.673,0.131175,0.0121,0.1720125,0.074762,0.034374,0.263302,0.961197,0
15161,0.49605003,1.6650001,7.5810003,0.733,-0.004,-2.104,-0.217,1.653,9.663,0.0672375,0.109037496,0.13145,0.078568,0.033341,0.266494,0.960049,0
15201,0.17505,1.8180001,7.7839503,0.384,0.09,-1.874,-0.221,1.72,9.651,0.0906125,0.1793,0.1027125,0.081752,0.034704,0.268968,0.959045,0
15242,0.064950004,1.8280501,8.77305,0.279,0.041,-0.868,-0.224,1.783,9.64,0.0842875,0.0248875,0.0600875,0.084765,0.035898,0.270606,0.958278,0
15281,-0.043950003,1.84695,9.847951,0.193,0.013,0.16,-0.236,1.828,9.631,0.18755,0.1496,0.1186625,0.086755,0.037257,0.272285,0.957572,0
15321,-0.01305,1.79595,9.91695,0.244,-0.148,0.304,-0.257,1.932,9.61,0.3526875,0.0845625,0.088825,0.091546,0.040016,0.274563,0.956364,0
15361,-0.70995003,1.473,11.349001,-0.403,-0.503,1.744,-0.312,1.975,9.6,0.1332375,0.3487,0.0856625,0.092925,0.043072,0.275794,0.955744,0
15401,-0.44205,1.983,10.885051,-0.023,-0.095,1.306,-0.412,2.07,9.576,0.45705,-0.080575,0.2476375,0.096416,0.050216,0.279857,0.953866,0
15442,-0.27705002,1.3800001,10.606951,-0.029,-0.739,1.023,-0.242,2.115,9.572,-0.3898125,-0.47575,-0.034649998,0.100556,0.042569,0.280719,0.953557,0
15481,-1.1359501,0.80505,13.52805,-0.875,-0.984,3.886,-0.255,1.788,9.638,-0.7051,0.5149375,0.06655,0.084143,0.038388,0.281083,0.955216,0
15521,-1.4980501,1.296,12.192,-1.125,-0.296,2.52,-0.389,1.57,9.672,-0.28435,-0.231825,0.09845,0.071324,0.041993,0.283694,0.955335,0
15561,-1.0170001,1.248,10.879951,-0.692,-0.225,1.177,-0.312,1.461,9.692,-0.205425,-0.120037496,0.1953875,0.06717,0.036926,0.285519,0.955302,0
15602,-0.17595,1.3440001,10.257001,0.149,-0.048,0.607,-0.343,1.381,9.702,-0.089375,0.1804,0.19855,0.062447,0.037338,0.290073,0.954234,0
15641,-0.44400004,1.7170501,8.928,-0.068,0.314,-0.777,-0.367,1.404,9.698,0.1705,-0.0166375,0.0686125,0.063145,0.039009,0.292542,0.953367,0
15681,-0.00105,1.713,8.385,0.312,0.235,-1.314,-0.308,1.47,9.69,0.15345,-0.181775,0.03025,0.067014,0.037326,0.293052,0.953014,0
15721,0.17505,1.62405,8.457001,0.417,0.11,-1.241,-0.252,1.508,9.686,-0.1095875,-0.0347875,-0.10175,0.070013,0.035072,0.292426,0.953076,0
15761,-0.19800001,1.332,9.46695,0.136,-0.141,-0.189,-0.232,1.446,9.696,-0.1032625,0.036575,-0.2668875,0.067357,0.032833,0.289025,0.954384,0
15802,-0.94905007,1.6840501,8.0119505,-0.693,0.188,-1.644,-0.271,1.46,9.693,0.0587125,-0.13915,-0.194425,0.067608,0.034574,0.284166,0.955763,0
15841,-0.17400001,1.78005,8.34195,0.088,0.284,-1.3,-0.238,1.485,9.69,-0.08085,-0.1115125,-0.162525,0.069475,0.033096,0.280998,0.956617,0
15881,-0.76995003,1.81305,8.071051,-0.478,0.281,-1.567,-0.274,1.535,9.681,0.12265,0.002475,-0.2105125,0.071538,0.035316,0.276999,0.957552,0
15921,-1.09095,2.08605,7.5139503,-0.743,0.424,-2.154,-0.332,1.663,9.658,0.2121625,-0.0433125,-0.177375,0.077023,0.03964,0.27322,0.958043,0
15961,-0.47505003,1.8589501,8.6650505,-0.158,0.11,-1.047,-0.359,1.757,9.641,0.1247125,-0.022,-0.1560625,0.081629,0.042082,0.269659,0.958566,0
16002,-0.246,1.7530501,9.09795,0.124,-0.086,-0.528,-0.369,1.83,9.627,0.2418625,0.0430375,-0.297825,0.085291,0.043283,0.265676,0.959305,0
16041,-1.23405,1.7029501,9.441,-0.787,-0.215,-0.168,-0.438,1.917,9.607,0.26221249,0.06435,-0.3243625,0.089024,0.047293,0.259158,0.960559,0
16081,-0.85605,1.84395,11.269951,-0.324,-0.084,1.661,-0.52,1.923,9.602,-0.121275,0.09845,-0.1816375,0.088495,0.050982,0.254311,0.961714,0
16121,-0.11895001,1.3579501,13.135051,0.478,-0.516,3.52,-0.587,1.865,9.609,-0.122375,0.0675125,-0.2179375,0.084874,0.053262,0.251345,0.962696,0
16161,-0.14295001,0.882,12.903001,0.468,-0.972,3.285,-0.604,1.844,9.612,0.08635,0.078099996,-0.2349875,0.083847,0.053447,0.246858,0.963936,0
16202,-0.27,1.176,10.342951,0.382,-0.647,0.722,-0.642,1.817,9.615,-0.0446875,0.0675125,-0.2105125,0.082336,0.05461,0.24315,0.964943,0
16241,-0.768,1.02795,11.0140505,-0.098,-0.625,1.36,-0.664,1.646,9.644,-0.35255,0.0856625,-0.1082125,0.073609,0.053327,0.240182,0.966462,0
16281,-0.112050004,1.4680501,10.153951,0.541,-0.071,0.482,-0.648,1.526,9.665,-0.11495,-0.0996875,0.09845,0.067791,0.05105,0.240643,0.966896,0
16321,-0.030000001,1.89495,8.41605,0.565,0.402,-1.27,-0.589,1.487,9.675,-0.171325,-0.1530375,-0.0048125,0.066504,0.047703,0.241623,0.966912,0
16362,-0.52305,1.9189501,9.225,0.063,0.504,-0.467,-0.581,1.402,9.688,-0.31515,0.0143,0.0473,0.062363,0.046226,0.241651,0.967253,0
16401,0.47205,1.88505,8.65305,0.989,0.522,-1.049,-0.497,1.375,9.696,-0.1266375,-0.0518375,0.0207625,0.061989,0.041822,0.243409,0.967036,0
16441,-0.33705002,1.81605,8.337001,0.137,0.434,-1.362,-0.463,1.374,9.698,-0.1458875,-0.0166375,-0.0633875,0.062366,0.040094,0.242755,0.96725,0
16481,0.034050003,1.41795,8.57205,0.452,0.064,-1.106,-0.437,1.365,9.701,-0.020075,-0.0666875,0.0132,0.062276,0.038666,0.242451,0.96739,0
16522,-0.27,1.54005,8.064,0.157,0.095,-1.649,-0.402,1.39,9.699,0.0576125,-0.00495,0.0037125,0.063954,0.037274,0.242576,0.967303,0
16561,-0.56595004,1.5979501,7.9950004,-0.156,0.144,-1.695,-0.402,1.451,9.69,0.114125,0.005775,0.089925,0.066973,0.038051,0.243178,0.966918,0
16601,-0.17595,1.5619501,8.940001,0.228,0.039,-0.746,-0.39,1.515,9.681,0.062975,-0.011275,0.1848,0.070179,0.038472,0.245927,0.965978,0
16641,-0.55005,1.5190501,9.7879505,-0.13,-0.024,0.105,-0.372,1.567,9.673,0.2014375,-0.0347875,0.1837,0.072895,0.038508,0.249229,0.964929,0
16682,-0.291,1.03695,10.992001,0.048,-0.581,1.324,-0.334,1.616,9.666,0.1406625,-0.0347875,0.292325,0.075482,0.037584,0.253022,0.963778,0
16721,-0.80595005,0.88395005,12.10305,-0.409,-0.805,2.463,-0.341,1.669,9.657,0.32505,0.1750375,0.4318875,0.077933,0.039153,0.25999,0.961664,0
16761,-0.768,1.6309501,11.3869505,-0.417,-0.197,1.756,-0.345,1.818,9.63,0.5625125,-0.2563,0.57145,0.084879,0.042227,0.269147,0.958421,0
16801,1.0009501,1.107,10.16205,1.068,-0.828,0.546,-0.074,1.932,9.614,0.165275,-0.44275,0.2954875,0.094026,0.031219,0.276911,0.955774,0
16842,0.58695,0.97305006,11.916,0.588,-0.845,2.111,0.032,1.776,9.644,-0.5069625,0.274175,0.0793375,0.087739,0.023928,0.279727,0.955762,0
16881,-0.35805002,1.22895,11.101951,-0.304,-0.365,1.423,-0.049,1.591,9.676,-0.171325,0.002475,-0.0922625,0.077239,0.025278,0.280472,0.956415,0
16921,-0.55905,1.143,9.805051,-0.561,-0.357,0.099,0.002,1.488,9.693,-0.341825,-0.1860375,-0.1390125,0.07314,0.021046,0.277455,0.957719,0
16961,-0.21000001,1.31295,11.2890005,-0.113,0.029,1.555,-0.091,1.278,9.722,-0.51975,0.43505,-0.0496375,0.061455,0.022565,0.276517,0.958776,0
17002,-0.42495003,1.4800501,9.679951,-0.22,0.259,-0.058,-0.201,1.214,9.729,0.1258125,-0.0017875,-0.0207625,0.056623,0.027034,0.276129,0.95907,0
17041,-0.54,1.69605,8.17395,-0.314,0.392,-1.545,-0.216,1.296,9.718,-0.005225,0.0845625,-0.078375,0.060662,0.028882,0.27483,0.959142,0
17081,-0.52095,1.46595,9.10095,-0.24,0.169,-0.619,-0.276,1.287,9.717,-0.1203125,-0.0240625,-0.1219625,0.05941,0.031625,0.273303,0.95957,0
17121,-0.33195,1.21905,9.41895,-0.061,-0.04,-0.311,-0.264,1.25,9.723,-0.1084875,-0.0911625,-0.121,0.057908,0.030428,0.270725,0.960431,0
17162,-0.42495003,1.179,9.594001,-0.145,-0.031,-0.14,-0.279,1.2,9.728,-0.08195,0.1442375,-0.096525,0.055357,0.030135,0.268706,0.961157,0
17201,-0.82500005,1.6480501,7.72905,-0.469,0.39,-1.996,-0.346,1.262,9.718,0.265375,-0.0198,-0.0133375,0.05742,0.03439,0.267574,0.961209,0
17241,-0.83895004,2.1409502,6.2689505,-0.472,0.708,-3.429,-0.358,1.43,9.695,0.0991375,-0.0655875,-0.0187,0.06566,0.037216,0.266972,0.960744,0
17281,-0.45405003,1.6890001,8.514,-0.09,0.205,-1.174,-0.36,1.489,9.686,-0.18095,-0.115775,-0.0804375,0.068223,0.037922,0.265967,0.960816,0
17321,-0.67905,1.5790501,8.79,-0.258,0.073,-0.845,-0.382,1.495,9.684,0.1769625,0.021724999,-0.1827375,0.068459,0.039019,0.26355,0.961421,0
17362,-0.61200005,1.30305,8.62005,-0.231,-0.241,-1.187,-0.394,1.563,9.673,0.043725,-0.0507375,-0.2094125,0.071971,0.040291,0.259335,0.962258,0
17401,-0.85095006,1.09695,10.99905,-0.394,-0.44,1.315,-0.455,1.528,9.676,-0.0319,0.2624875,-0.1241625,0.069596,0.042626,0.256157,0.963183,0
17441,-0.040050004,1.61205,11.52105,0.51,0.045,1.842,-0.54,1.566,9.665,0.2674375,0.1260875,-0.059125,0.070406,0.047247,0.255206,0.963161,0
17481,-0.35595003,1.18305,11.284051,0.105,-0.353,1.465,-0.468,1.603,9.663,-0.0829125,-0.2594625,-0.2264625,0.073319,0.043915,0.251731,0.964016,0
17521,0.71805006,0.17805001,13.698001,1.223,-1.312,4.009,-0.515,1.489,9.679,-0.2778875,0.526625,-0.0922625,0.067168,0.044605,0.249389,0.96504,0
17562,-1.074,1.28205,11.074051,-0.316,-0.264,1.634,-0.694,1.483,9.668,0.3463625,0.0941875,-0.246675,0.06475,0.053192,0.246405,0.965537,0
17601,-0.76005006,0.93000007,8.359051,-0.251,-0.578,-1.409,-0.583,1.555,9.664,-0.25135,-0.4800125,-0.1412125,0.069963,0.048286,0.241624,0.966639,0
17641,0.55095005,0.453,12.388051,1.065,-0.834,2.672,-0.528,1.27,9.709,-0.728475,0.3955875,0.007975,0.057261,0.041677,0.24118,0.967892,0
17681,-0.72705,1.7410501,9.670951,-0.06,0.539,-0.041,-0.66,1.19,9.711,0.2003375,0.089925,-5.50E-04,0.050844,0.047514,0.2417,0.967852,0
17721,-0.303,1.9950001,7.6600504,0.272,0.732,-2.054,-0.572,1.256,9.709,-0.0743875,-0.2509375,-0.0048125,0.055215,0.04391,0.241402,0.967857,0
17762,0.03795,1.6339501,9.538951,0.58,0.442,-0.185,-0.553,1.178,9.719,-0.3663,0.1420375,-0.0548625,0.051591,0.041997,0.241227,0.968185,0
17801,-0.00405,1.1719501,10.233001,0.527,0.09,0.496,-0.514,1.076,9.733,-0.2215125,-0.062425,-0.14973749,0.047102,0.039435,0.239751,0.968888,0
17841,-0.62100005,0.99705005,9.68295,-0.084,-0.055,-0.065,-0.527,1.049,9.736,0.19085,0.17407499,0.023924999,0.045622,0.038975,0.238149,0.969373,0
17881,-0.12795001,1.4250001,7.4110503,0.421,0.216,-2.308,-0.542,1.207,9.716,0.38995,-0.0741125,0.1507,0.05323,0.041752,0.240272,0.968345,0
17922,-0.79605,1.6459501,7.4130006,-0.277,0.275,-2.289,-0.512,1.36,9.698,0.1056,0.0248875,0.158125,0.061008,0.042295,0.242296,0.967358,0
17961,-0.43695003,1.7340001,8.385,0.121,0.299,-1.309,-0.556,1.432,9.685,0.115225,0.015262499,0.286,0.063799,0.045701,0.246699,0.965909,0
18001,-0.53805,1.64295,8.928,-0.07,0.087,-0.751,-0.46,1.546,9.672,0.32615,-0.331925,0.23375,0.071078,0.042499,0.251236,0.964376,0
18041,0.23895001,1.6980001,8.988001,0.572,0.019,-0.749,-0.354,1.669,9.657,0.1354375,0.0270875,0.3499375,0.078027,0.039518,0.256492,0.96258,0
18082,-0.186,1.4299501,11.172001,0.224,-0.242,1.459,-0.346,1.689,9.653,0.1397,0.0237875,0.286,0.07875,0.039882,0.2625,0.960885,0
18121,-0.40800002,1.4779501,10.891951,-0.126,-0.306,1.242,-0.278,1.786,9.638,0.4731375,-0.14025,0.3744125,0.084267,0.038329,0.267862,0.958999,0
18161,0.165,1.8010501,10.14,0.383,-0.123,0.513,-0.193,1.893,9.62,0.146025,-0.14025,0.3392125,0.090476,0.037007,0.274314,0.956658,0
18201,0.99600005,0.52005005,11.6959505,1.043,-1.245,2.003,-0.03,1.784,9.642,-0.31515,-0.2127125,0.0526625,0.087529,0.02736,0.278379,0.956083,0
18241,-1.1410501,0.669,11.33895,-1.046,-0.927,1.656,-0.083,1.594,9.675,-0.1755875,0.33275,-0.077275,0.077397,0.026584,0.278003,0.957087,0
18282,-1.00905,0.95595,10.377001,-0.914,-0.546,0.591,-0.154,1.478,9.693,-0.3705625,-0.34265,0.0089375,0.070433,0.028645,0.277413,0.957737,0
18321,0.060000002,0.40500003,12.970051,0.141,-0.828,3.236,-0.089,1.212,9.73,-0.57722497,0.1579875,0.0633875,0.05822,0.021649,0.27822,0.958506,0
18361,-0.351,1.4970001,10.417951,-0.178,0.34,0.881,-0.191,1.106,9.742,0.12375,0.09735,0.058025,0.05148,0.025238,0.279778,0.95835,0
18401,-0.51105005,1.6720501,8.347051,-0.338,0.512,-1.402,-0.165,1.148,9.737,-0.037125,0.020624999,-0.0752125,0.053974,0.024525,0.279456,0.958326,0
18441,-1.182,1.3750501,9.40995,-0.932,0.268,-0.344,-0.238,1.093,9.742,-0.173525,0.2358125,-0.0485375,0.050207,0.027274,0.278324,0.958786,0
18482,-0.423,1.30095,8.971951,-0.145,0.215,-0.781,-0.276,1.078,9.743,0.0309375,-0.114675,-0.0218625,0.048957,0.028895,0.278126,0.95886,0
18521,-0.564,1.18095,8.890051,-0.285,0.071,-0.86,-0.272,1.099,9.74,0.010725,0.0408375,-0.0559625,0.050099,0.02896,0.276973,0.959133,0
18561,-0.37005,1.29795,8.538,-0.047,0.139,-1.206,-0.319,1.154,9.733,0.2503875,0.0664125,0.021724999,0.052129,0.032049,0.276725,0.958998,0
18602,-0.049050003,1.713,6.9370503,0.222,0.365,-2.778,-0.255,1.344,9.71,0.3782625,-0.37345,-0.0496375,0.061926,0.031846,0.276485,0.958491,0
18641,-0.030000001,1.8180001,7.43205,0.122,0.322,-2.268,-0.15,1.488,9.691,0.1428625,-0.00495,-0.1593625,0.071076,0.028314,0.274156,0.958636,0
18681,-0.58605003,1.9380001,9.151051,-0.4,0.338,-0.535,-0.189,1.611,9.671,0.29947498,-0.2531375,-0.144375,0.07674,0.031726,0.270712,0.959072,0
18721,0.16005,1.5640501,9.283051,0.116,-0.23,-0.367,0.044,1.791,9.641,0.4698375,-0.64515,-0.2998875,0.088429,0.022754,0.266026,0.959631,0
18762,-0.432,1.5000001,10.815001,-0.441,-0.412,1.147,0.007,1.874,9.625,0.2418625,0.63855,-0.1188,0.092692,0.02416,0.261029,0.960566,0
18801,-0.31695002,2.05995,10.84395,-0.098,0.058,1.243,-0.214,1.998,9.598,0.450725,0.3114375,-0.0378125,0.095954,0.037475,0.260886,0.959857,0
18841,0.273,1.605,10.437,0.427,-0.508,0.855,-0.146,2.1,9.577,-0.0851125,-0.4917,-0.2509375,0.102133,0.035082,0.256708,0.960436,0
18881,1.5990001,0.42195,13.759951,1.671,-1.435,4.127,-0.09,1.846,9.63,-0.627275,0.627825,-0.2861375,0.090278,0.028468,0.252502,0.962954,0
18922,-1.50495,1.6189501,12.064951,-1.155,-0.149,2.585,-0.376,1.729,9.645,-0.01265,0.2773375,-0.2594625,0.081049,0.040373,0.247848,0.964557,0
18961,-0.15195,1.5120001,8.878051,0.205,-0.251,-0.767,-0.274,1.735,9.647,-0.1755875,-0.4140125,-0.0985875,0.082701,0.035401,0.244322,0.965512,0
19001,0.54105,1.473,10.897051,0.803,-0.086,1.217,-0.278,1.545,9.68,-0.61242497,0.33495,-0.1060125,0.07318,0.033149,0.243462,0.966577,0
19041,-0.432,1.746,9.679951,-0.052,0.339,-0.028,-0.37,1.4,9.699,-0.18315,-0.012375,-0.20515,0.065077,0.035693,0.240946,0.967696,0
19081,-0.55200005,1.7580001,9.25395,-0.167,0.393,-0.512,-0.38,1.346,9.706,-0.2011625,0.1027125,-0.1508375,0.06221,0.035245,0.237359,0.968786,0
19122,-0.54195005,1.6890001,9.1390505,-0.086,0.37,-0.568,-0.444,1.317,9.707,-0.056375,0.0567875,-0.1082125,0.060108,0.037971,0.235235,0.969334,0
19161,-0.31695002,1.5450001,8.64105,0.147,0.202,-1.03,-0.447,1.323,9.706,-0.121275,0.0345125,-0.0633875,0.060404,0.038076,0.233618,0.969703,0
19201,-0.231,1.2220501,9.99405,0.279,-0.029,0.257,-0.473,1.266,9.712,-0.14685,0.1772375,-0.0474375,0.057281,0.038659,0.23309,0.969996,0
19241,-0.49695003,1.3969501,8.707951,0.03,0.104,-1.004,-0.521,1.284,9.708,0.2110625,0.0334125,0.09735,0.057598,0.041264,0.233367,0.969803,0
19281,-0.20505,1.4779501,7.49205,0.313,0.064,-2.2,-0.518,1.406,9.691,0.1854875,0.170775,0.158125,0.063726,0.042962,0.236158,0.96867,0
19322,-0.957,1.7050501,7.1970005,-0.349,0.18,-2.477,-0.604,1.522,9.668,0.2781625,0.17613749,0.30085,0.068149,0.048764,0.240138,0.967114,0
19361,-0.35595003,1.84905,7.2330003,0.246,0.151,-2.409,-0.6,1.687,9.641,0.198275,-0.1348875,0.37125,0.076098,0.051188,0.246468,0.964801,0
19401,-0.70005006,1.19295,10.2640505,-0.181,-0.517,0.611,-0.513,1.702,9.644,-0.095699996,-0.114675,0.3317875,0.077636,0.047523,0.252526,0.963298,0
19442,0.192,1.45905,11.076,0.686,-0.257,1.43,-0.495,1.714,9.642,0.1428625,0.1612875,0.4989875,0.078088,0.047457,0.260582,0.961117,0
19481,-0.66,1.9350001,10.47,-0.144,0.147,0.831,-0.508,1.789,9.628,0.1439625,0.019524999,0.224125,0.081124,0.049697,0.267577,0.958828,0
19521,0.558,1.62405,12.15795,0.974,-0.14,2.511,-0.429,1.761,9.637,-0.309925,-0.3309625,0.227425,0.080751,0.04578,0.271605,0.957921,0
19561,0.98205006,0.24705002,14.03295,1.305,-1.359,4.359,-0.325,1.597,9.67,-0.3865125,0.021724999,-0.110275,0.074036,0.038381,0.27261,0.958503,0
19602,-1.9810501,1.4320501,10.55895,-1.591,-0.195,1.074,-0.395,1.573,9.671,0.13859999,-0.06985,0.0270875,0.071845,0.041394,0.270914,0.959025,0
19641,0.462,0.83400005,11.007001,0.657,-0.694,1.32,-0.197,1.515,9.686,-0.51975,-0.502425,0.1442375,0.071784,0.030941,0.272832,0.95888,0
19681,-1.2220501,0.46305,12.640051,-0.989,-0.847,2.923,-0.231,1.303,9.716,-0.3898125,0.4701125,0.056925,0.060808,0.029663,0.274174,0.959297,0
19721,-1.05495,1.5979501,8.89305,-0.752,0.253,-0.829,-0.295,1.339,9.71,0.4092,-0.1252625,0.3051125,0.061963,0.033592,0.278362,0.957886,0
19761,-0.708,1.8589501,7.2019506,-0.442,0.416,-2.586,-0.224,1.449,9.696,-9.63E-04,-0.0336875,0.13365,0.067827,0.031954,0.28213,0.956441,0
19802,-0.45900002,1.3099501,9.793051,-0.24,-0.034,0.005,-0.25,1.378,9.705,-0.207625,0.0515625,0.0814,0.063918,0.032362,0.284125,0.956106,0
19841,-0.26205,1.1020501,9.148951,-0.02,-0.261,-0.57,-0.236,1.352,9.71,0.0853875,-0.088,-0.0463375,0.062822,0.031295,0.284483,0.956108,0
19881,-0.50205004,1.131,8.839951,-0.231,-0.227,-0.951,-0.247,1.357,9.709,-0.021175,0.1079375,-0.0655875,0.062963,0.03182,0.283123,0.956485,0
19921,-0.28905,1.3750501,8.409,0.008,-0.015,-1.301,-0.294,1.377,9.704,0.1491875,-0.0273625,-0.0207625,0.063275,0.034372,0.282469,0.956569,0
19962,-0.08295,1.44,7.5370502,0.171,-0.043,-2.159,-0.253,1.473,9.691,0.2057,-0.0891,-0.07095,0.068627,0.033702,0.28145,0.956525,0
20001,-0.28395,1.6669501,7.2979503,-0.044,0.072,-2.375,-0.254,1.58,9.675,0.2589125,-0.0198,-0.07095,0.073959,0.0352,0.279711,0.956583,0
20041,0.321,1.6020001,7.1710505,0.521,-0.115,-2.49,-0.208,1.709,9.654,0.20253749,-0.1615625,-0.211475,0.081052,0.034606,0.277275,0.956739,0
20081,-0.99000007,1.06605,8.976001,-0.803,-0.674,-0.674,-0.177,1.736,9.649,0.011825,-0.0209,-0.3447125,0.083091,0.032913,0.27124,0.958353,0
20121,-0.83895004,1.34595,10.48005,-0.535,-0.366,0.82,-0.295,1.701,9.653,0.1428625,0.1698125,-0.0974875,0.079857,0.037874,0.266674,0.959725,0
20162,-1.4449501,2.00895,11.080951,-1.097,0.221,1.435,-0.346,1.78,9.637,0.275,-0.098725,-0.0463375,0.083159,0.041383,0.265023,0.959757,0
20201,-0.14505,1.593,12.738001,0.116,-0.258,3.105,-0.252,1.838,9.629,0.029975,-0.264825,0.0473,0.087404,0.037269,0.264622,0.959659,0
20241,1.2430501,0.64500004,13.657051,1.458,-1.159,4.009,-0.225,1.797,9.637,-0.107525,0.340175,-0.0815375,0.085649,0.035606,0.264536,0.959904,0
20281,-1.0020001,1.8079501,10.6710005,-0.571,-0.006,1.034,-0.429,1.807,9.629,0.1951125,0.309375,-0.093225,0.083403,0.045304,0.263039,0.960105,0
20321,0.28695002,0.89895004,10.317,0.668,-0.869,0.672,-0.382,1.768,9.638,-0.341825,-0.1860375,-0.0496375,0.082235,0.042665,0.261594,0.960721,0
20362,-0.010950001,1.47105,11.191051,0.409,-0.131,1.516,-0.409,1.602,9.666,-0.0691625,0.410575,0.0452375,0.073599,0.041844,0.262491,0.961213,0
20401,0.56700003,1.7389501,8.68395,0.972,0.106,-0.986,-0.41,1.622,9.662,-0.0265375,-0.2360875,-0.088,0.074551,0.042121,0.262618,0.961092,0
20442,-0.11595,1.27695,10.64805,0.257,-0.228,0.904,-0.375,1.52,9.68,-0.289575,0.09625,-0.160325,0.070101,0.038794,0.25969,0.962362,0
20481,0.08400001,1.3440001,9.934051,0.476,-0.132,0.241,-0.397,1.469,9.687,0.1502875,0.1122,-0.03355,0.067243,0.038944,0.258257,0.962945,0
20521,0.09105001,1.6140001,7.9300504,0.478,0.058,-1.747,-0.41,1.548,9.674,0.147125,0.205975,-0.088,0.071109,0.040746,0.25728,0.962855,0
20561,-0.84705,1.71,8.866051,-0.414,0.124,-0.816,-0.429,1.577,9.669,-0.1117875,-0.1263625,-0.163625,0.072409,0.041903,0.254876,0.963347,0
20601,-0.39195,1.18605,9.07695,-0.048,-0.414,-0.564,-0.383,1.547,9.676,0.1354375,-0.17435,0.1442375,0.071541,0.039185,0.254275,0.963685,0
20641,0.49095002,1.6020001,7.3290005,0.713,-0.029,-2.215,-0.257,1.639,9.665,0.0906125,-0.231825,0.1155,0.077656,0.034379,0.257306,0.96259,0
20682,-0.37005,1.88505,8.026051,-0.092,0.186,-1.902,-0.209,1.632,9.667,-0.323675,0.1260875,0.0270875,0.077896,0.031997,0.258225,0.962407,0
20721,-0.41595003,0.77205,9.8220005,-0.205,-0.752,0.04,-0.298,1.515,9.684,-0.0617375,0.393525,0.111237496,0.070814,0.034962,0.260351,0.962278,0
20761,-0.052050002,1.7029501,9.496051,0.419,0.116,-0.173,-0.46,1.586,9.666,0.2855875,-0.0603625,0.4052125,0.071961,0.044349,0.265578,0.960376,0
20801,-0.47805002,0.82905006,9.951,-0.042,-0.857,0.189,-0.287,1.656,9.661,0.2674375,-0.086899996,0.1623875,0.077591,0.037124,0.269904,0.959037,0
20841,-0.39195,1.3939501,10.806001,0.042,-0.343,1.157,-0.423,1.733,9.643,0.3793625,0.696025,0.564025,0.079188,0.045529,0.277193,0.956462,0
20882,-0.633,1.6380001,11.57205,-0.096,-0.22,1.948,-0.529,1.855,9.614,0.35585,0.0356125,0.3136375,0.083215,0.053363,0.28655,0.952951,0
20921,-0.94500005,1.23405,12.517051,-0.42,-0.707,2.916,-0.519,1.933,9.6,0.248325,-0.064625,0.3669875,0.086928,0.054479,0.291565,0.951033,0
20961,-1.5700501,2.22,9.537001,-1.015,0.189,-0.043,-0.576,2.042,9.574,0.348425,0.1282875,0.291225,0.090917,0.058134,0.297559,0.948584,0
21001,0.582,0.93195003,10.47795,0.888,-1.036,0.871,-0.316,1.963,9.602,-0.8063,-1.107425,-0.1892,0.091118,0.045641,0.298359,0.948997,0
21041,-0.94695,0.27795002,15.1060505,-0.686,-1.272,5.424,-0.253,1.544,9.68,-0.9191875,0.7099125,-0.1167375,0.071647,0.035728,0.294338,0.952341,0
21082,-0.21405001,1.5690001,10.03695,0.302,0.11,0.339,-0.507,1.455,9.684,0.2792625,0.2699125,-0.0059125,0.063418,0.046853,0.295603,0.952051,0
21121,-1.7830501,1.6890001,7.5880504,-1.278,0.126,-2.082,-0.49,1.564,9.668,0.115225,-0.1232,-0.21367499,0.069085,0.047466,0.291645,0.952846,0
21162,-1.69605,1.5450001,8.81805,-1.135,-0.007,-0.855,-0.558,1.544,9.668,-0.107525,0.307175,0.06545,0.067433,0.050149,0.29055,0.953162,0
21202,-0.21195,1.65795,8.586,0.335,0.099,-1.059,-0.553,1.548,9.667,0.111925,-0.267025,0.0452375,0.067413,0.050345,0.292647,0.952511,0
21241,-0.78705,1.18605,9.525001,-0.303,-0.362,-0.151,-0.469,1.544,9.672,-0.11605,-0.1881,-0.16995,0.068659,0.046229,0.290637,0.953246,0
21281,-0.009000001,0.846,10.39395,0.429,-0.604,0.702,-0.429,1.444,9.69,-0.1874125,-0.030524999,-0.2520375,0.064451,0.042292,0.286746,0.954899,0
21321,-1.03995,0.882,10.324051,-0.545,-0.46,0.62,-0.507,1.316,9.704,-0.1522125,0.19965,-0.3499375,0.058293,0.043223,0.281339,0.95686,0
21361,-1.7350501,0.94200003,9.87195,-1.127,-0.28,0.151,-0.617,1.229,9.709,-0.16499999,0.03135,-0.2871,0.051742,0.047646,0.274706,0.958951,0
21402,-1.404,0.81000006,9.61095,-0.622,-0.354,-0.081,-0.746,1.14,9.711,-0.1511125,0.340175,-0.0974875,0.045727,0.052575,0.271643,0.959872,0
21441,-2.2039502,1.131,9.640051,-1.394,0.028,-0.104,-0.832,1.117,9.707,0.0683375,-0.3447125,0.0089375,0.043423,0.056457,0.270613,0.960049,0
21481,-0.34095,1.0639501,9.538951,0.404,-0.076,-0.177,-0.745,1.139,9.711,0.1067,-0.10615,0.23485,0.045543,0.052581,0.273507,0.959351,0
21521,-0.31695002,1.473,8.43795,0.379,0.299,-1.28,-0.692,1.171,9.711,-0.19167499,0.0994125,0.0430375,0.047705,0.050625,0.276803,0.958405,0
