Timestamp,Milliseconds,linear-x,linear-y,linear-z,gravity-x,gravity-y,gravity-z,rotation-x,rotation-y,rotation-z,rotation-w,acc-x,acc-y,acc-z,gyr-x,gyr-y,gyr-z
2023/4/26 16:14,3,-0.115674995,-0.04487413,0.09323025,-0.06877242,1.0414741,9.750948,0.023382574,0.047810413,0.86423963,0.50025713,-0.13339986,0.9762716,9.675079,0.055739813,-0.10796725,0.02443389
2023/4/26 16:14,41,0.06679465,0.16693985,-0.11647415,-0.04371975,1.0577824,9.749337,0.025163932,0.04790617,0.8644391,0.4998168,-0.010169496,1.1750255,9.538539,-0.06398625,0.03130592,0.004886778
2023/4/26 16:14,81,-0.018385869,0.025032043,0.11794853,-0.04960376,1.0505258,9.750093,0.024634646,0.047678962,0.8646121,0.49956563,-0.10348958,0.9870393,9.68465,0.032527618,-0.009009997,-0.002443389
2023/4/26 16:14,121,-0.12271693,0.006493568,0.044605255,-0.04267011,1.064426,9.748618,0.025216406,0.04810698,0.86452335,0.49964914,-0.1742274,1.0553843,9.603145,0.032527618,-0.037108973,0.017103724
2023/4/26 16:14,162,-0.0236323,5.50E-04,-0.05788517,-0.05091829,1.0817695,9.746671,0.025337752,0.048933852,0.86473763,0.49919164,-0.048454657,1.0757233,9.466754,0.034971006,0.014202199,0.041537613
2023/4/26 16:14,202,0.10055998,0.10735834,-0.011370659,-0.04612249,1.0889636,9.745893,0.02574836,0.049343757,0.86484367,0.49894658,0.053240303,1.1977572,9.597163,0.010537115,-0.04199575,0.017103724
2023/4/26 16:14,241,0.023550633,-0.016921401,0.035289764,-0.015453381,1.1141213,9.743145,0.02738517,0.049527485,0.8649388,0.4986762,0.002991028,1.0840982,9.5636635,0.06673507,-0.033443887,0.009773556
2023/4/26 16:14,281,-0.0491354,0.02821374,-0.10979366,-0.008482567,1.1291226,9.741426,0.02827151,0.05008872,0.8650198,0.49843016,-0.061615184,1.1510973,9.478718,0.02519745,-0.024892027,0.014660334
2023/4/26 16:14,322,-0.021423735,0.045211196,0.08813763,0.01268198,1.1482564,9.739185,0.029566402,0.0504403,0.8646501,0.4989608,0.020937199,1.1869895,9.652348,0.07040015,-0.11285403,0.007330167
2023/4/26 16:14,361,0.07829076,0.07642937,0.001200676,0.059859205,1.1793112,9.735298,0.032317337,0.050591074,0.8644658,0.49909428,0.14790635,1.2228819,9.564859,0.037414394,-0.033443887,0.03420745
2023/4/26 16:14,401,0.07756035,0.10658407,-0.12899208,0.0758342,1.1953938,9.733225,0.03373357,0.050977696,0.86471725,0.49852517,0.15747765,1.2936198,9.385398,-0.016340164,-0.029778805,0.006108473
2023/4/26 16:14,441,0.046319157,0.13182819,-0.1834526,0.081550635,1.1767668,9.735448,0.033774916,0.05026904,0.86413836,0.499597,0.15628123,1.343869,9.397363,-0.094528615,-0.013896775,0.001221695
2023/4/26 16:14,481,0.103644684,-0.15902227,0.23848248,0.10119395,1.1532696,9.738075,0.033882838,0.048578452,0.863908,0.5001551,0.11306087,0.97866446,9.882058,0.014202199,-0.09575031,-0.06352811
2023/4/26 16:14,521,-0.19145404,-0.27499652,0.25497055,0.13141243,1.1771199,9.73486,0.035488617,0.048297767,0.8637472,0.50034857,-0.048454657,0.94755775,9.730114,0.17790927,-0.0749815,-0.015882028
2023/4/26 16:14,561,-0.12599505,-0.061695457,-0.04117775,0.14335358,1.2218499,9.729179,0.037389085,0.050230306,0.8640944,0.4994195,0.032901313,1.1379367,9.57802,0.10094251,-0.052991,0.041537613
2023/4/26 16:14,601,-0.016937733,0.033563852,0.07281971,0.1759299,1.2814202,9.720978,0.03939345,0.05177264,0.86462986,0.49817958,0.1957628,1.3031911,9.610324,0.20478654,-0.16050012,0.076966755
2023/4/26 16:14,641,0.1833607,0.16170561,-0.39573097,0.23544607,1.3512926,9.71025,0.04406449,0.05351614,0.86477447,0.4973525,0.38001016,1.5113666,9.142377,0.08872557,-0.038330667,0.023212196
2023/4/26 16:14,681,-0.03404264,0.057855606,-0.018439293,0.24018435,1.3815379,9.705877,0.045816727,0.054965347,0.86452216,0.49747473,0.1538884,1.384547,9.507432,0.04963134,-0.009009997,0.03787253
2023/4/26 16:14,722,0.011262625,0.019935846,-0.3145895,0.25411892,1.3890634,9.704449,0.046569988,0.05530284,0.86473787,0.49699226,0.2567798,1.3929219,9.198608,-0.06642964,-0.006566608,0.02687728
2023/4/26 16:14,761,0.014530286,-0.054170012,0.15962315,0.24361666,1.3562491,9.709357,0.04546979,0.054058008,0.86507535,0.4966436,0.2902793,1.2252748,9.733704,-0.04566083,0.028862532,0.042759307
2023/4/26 16:14,801,0.043102175,-0.06483114,-0.003219605,0.25143248,1.350923,9.709902,0.045267057,0.053525656,0.86551845,0.49594727,0.29267213,1.261167,9.4512005,0.030084228,-0.02611372,0.035429142
2023/4/26 16:14,841,0.02621013,0.059774637,-0.10393715,0.2578529,1.3432093,9.710802,0.04565071,0.053126074,0.86593395,0.49522927,0.30343983,1.3498511,9.422487,-0.07375981,0.059404895,0.04031592
2023/4/26 16:14,881,0.030237481,-0.10332787,0.3129444,0.23094077,1.3119084,9.715757,0.04372433,0.052442454,0.8662861,0.49485996,0.22328027,1.1439188,9.871291,-0.052991,0.0581832,0.041537613
2023/4/26 16:14,921,0.110584766,-0.22214651,0.114569664,0.24008939,1.3071499,9.716178,0.043469336,0.052046396,0.8668857,0.49387324,0.301047,1.167847,9.592378,0.059404895,-0.020005248,0.017103724
2023/4/26 16:14,962,0.040104017,-2.29E-05,-0.21867657,0.22921796,1.3186423,9.714887,0.043631416,0.052656062,0.8670165,0.4935646,0.2711367,1.2996018,9.300303,-0.004123219,0.08383878,0.039094225
2023/4/26 16:14,1001,0.05176243,-0.049848557,0.095472336,0.20764922,1.2986007,9.718071,0.042246334,0.052647203,0.86740345,0.49300587,0.24720849,1.208525,9.685847,-0.028557109,0.009315421,0.01343864
2023/4/26 16:14,1042,-0.011608765,-0.119793534,-0.15662003,0.21424013,1.2976453,9.718056,0.042341914,0.052205287,0.86739534,0.4930589,0.23285155,1.2312568,9.349505,-0.009009997,0.06795676,0.014660334
2023/4/26 16:14,1081,0.10873836,0.057706594,0.014820099,0.19178222,1.2799788,9.720867,0.041113276,0.052125152,0.86775255,0.49254256,0.28669006,1.3534403,9.595966,-0.055434387,0.065513365,-0.002443389
2023/4/26 16:14,1122,0.07249004,-0.02765882,0.067448616,0.1907797,1.2728112,9.7218275,0.040523607,0.051807012,0.8675326,0.4930122,0.22926232,1.1893824,9.568449,-0.002901525,-0.04199575,-0.020768806
2023/4/26 16:14,1161,0.015878066,0.00133276,0.006385803,0.18204007,1.2631304,9.723258,0.040313676,0.051500335,0.8680523,0.49214602,0.19695921,1.2683456,9.576824,-0.02611372,0.08628218,-0.01343864
2023/4/26 16:14,1201,-0.057706654,0.06256974,-0.030665398,0.1679213,1.2625153,9.723592,0.03929805,0.05186029,0.8679535,0.49236465,0.1369891,1.2876377,9.479915,-0.020005248,-0.005344913,-0.006108473
2023/4/26 16:14,1242,0.08495942,-0.0451051,0.1215868,0.16407481,1.2401447,9.726537,0.0388827,0.051145844,0.86729723,0.4936272,0.2388336,1.1774184,9.716953,-0.05054761,0.039857782,-0.015882028
2023/4/26 16:14,1281,-0.05881226,3.30E-04,0.08077335,0.15669145,1.2435411,9.726224,0.038289595,0.051034547,0.86734045,0.49360904,0.14192429,1.2228819,9.520593,0.048409645,-0.005344913,0.001221695
2023/4/26 16:14,1321,0.04564482,0.12528193,-0.073758125,0.15525846,1.2487872,9.7255745,0.038458113,0.05156812,0.86757225,0.49313298,0.21490538,1.3259228,9.57802,-0.03955236,0.012980504,-0.008551862
2023/4/26 16:14,1361,0.04529883,-0.06957531,0.007433891,0.1476448,1.2414575,9.726632,0.038012035,0.051403586,0.8679964,0.49243787,0.15508482,1.1403296,9.507432,0.005650337,0.041079476,-0.036650836
2023/4/26 16:14,1401,-0.13934068,-0.006080151,-0.1879406,0.13894203,1.2365367,9.727387,0.03746783,0.051436983,0.86719704,0.4938823,0.036490545,1.1774184,9.410522,-0.040774055,-0.031000499,-0.006108473
2023/4/26 16:14,1441,-0.06889145,-0.055897832,-0.030225754,0.13860427,1.2118688,9.730496,0.03707169,0.0505098,0.866891,0.49454468,0.10229317,1.1307583,9.532557,-0.06398625,0.01175881,0.015882028
2023/4/26 16:14,1481,0.011103854,0.004923582,0.030928612,0.13334045,1.1878484,9.733531,0.036023945,0.049428947,0.867184,0.49421751,0.15747765,1.161865,9.599556,-0.035887275,0.004428643,-0.002443389
2023/4/26 16:14,1521,-0.05220121,-0.013891816,0.1951828,0.14342095,1.1850029,9.733734,0.0361573,0.048959397,0.8669731,0.49462435,0.08315059,1.1642578,9.736096,0.028862532,-0.04688253,-0.004886778
2023/4/26 16:14,1561,0.021599352,-0.009167552,-0.072356224,0.1425844,1.1932579,9.7327385,0.036653988,0.049178597,0.8666357,0.49515706,0.17183457,1.1750255,9.445219,0.010537115,0.039857782,0.008551862
2023/4/26 16:14,1602,0.09099622,0.050565958,-0.01879692,0.13842733,1.1916064,9.733001,0.03636736,0.049384188,0.8666685,0.49510032,0.20413768,1.1654541,9.6224375,-0.028557109,0.019088976,-0.002443389
2023/4/26 16:14,1641,0.029513046,-0.03869486,0.1272974,0.1344571,1.1922519,9.732977,0.036261562,0.04921443,0.8656831,0.49684587,0.13938192,1.1379367,9.610324,0.050853033,0.028862532,-0.003665084
2023/4/26 16:14,1681,0.002347581,0.028506994,-0.29888916,0.11895935,1.2016922,9.7320175,0.036032185,0.050140236,0.8651295,0.49773353,0.13339986,1.2216855,9.1974125,-0.054212693,0.07895201,-0.019547112
2023/4/26 16:14,1722,-0.022297092,-0.049929023,0.004504204,0.07773457,1.1659378,9.736783,0.03383518,0.049902838,0.8649865,0.49815992,0.04965107,1.0254741,9.633204,-0.11529742,0.07284354,-0.007330167
2023/4/26 16:14,1761,-0.090973735,-0.124578595,0.3218975,0.056114204,1.1304959,9.741111,0.031398874,0.0486193,0.8654564,0.49762982,-0.037686955,1.0386345,9.843773,0.02275406,0.03130592,-0.003665084
2023/4/26 16:14,1802,-0.03050591,0.0970726,-0.16663551,0.038996745,1.1443082,9.73958,0.030982008,0.049441308,0.8650913,0.49820948,0.016151553,1.2432209,9.375827,-0.004123219,0.032527618,-0.001221695
2023/4/26 16:14,1841,0.07314257,0.07282603,0.08058739,0.017566642,1.1271374,9.741645,0.029716,0.049528398,0.86518216,0.49812022,0.07836494,1.1175977,9.754043,-0.08108997,0.06673507,-0.014660334
2023/4/26 16:14,1882,-0.090615414,-0.08340621,0.08513355,0.006943378,1.1219212,9.74226,0.028841488,0.04927972,0.864933,0.4986287,-0.08554341,1.01351,9.623633,0.065513365,-0.016340164,-0.006108473
2023/4/26 16:14,1922,0.07648991,0.01306212,-0.1410017,0.008049253,1.1342983,9.740827,0.029218525,0.04993496,0.8646975,0.49894992,0.12263216,1.1522937,9.472736,0.006872032,7.64E-04,0.001221695
2023/4/26 16:14,1961,0.16290624,0.06993866,-0.20575714,0.017137764,1.1371742,9.7404785,0.029802486,0.049867224,0.8642727,0.4996576,0.17183457,1.1953645,9.313464,-0.029778805,0.015423893,-0.03298575
2023/4/26 16:14,2002,0.033110082,0.041264296,0.006525993,0.018132681,1.1133164,9.743233,0.029490149,0.04904698,0.8637794,0.50060946,0.054436713,1.0984552,9.621241,-0.0749815,-0.00167983,-0.057419643
2023/4/26 16:14,2041,-0.12533318,-0.003656626,0.15543747,0.014895508,1.0970998,9.745078,0.028880876,0.048091125,0.86325353,0.5016438,-0.1381855,1.0422238,9.664311,-0.018783553,-0.007788302,-0.046424393
2023/4/26 16:14,2082,-0.1630402,-0.052921295,-0.011453629,0.006347806,1.0834986,9.746609,0.028277906,0.04775362,0.86288184,0.5023493,-0.14072788,1.0015458,9.570842,-0.024892027,-0.011453386,-0.023212196
2023/4/26 16:14,2122,-0.004344807,0.015877485,0.08910942,-0.011432941,1.0789777,9.747106,0.027311398,0.047829352,0.8631682,0.50190353,0.00418744,1.0840982,9.661919,0.009315421,0.06306998,-0.004886778
2023/4/26 16:14,2161,-0.074783415,0.0536803,0.029452324,-0.0278517,1.085661,9.7461405,0.02668437,0.04853474,0.8627651,0.50256217,-0.11306087,1.1283654,9.57802,0.027640838,0.001985254,-0.003665084
2023/4/26 16:14,2202,0.002738131,0.012673378,-0.19809628,-0.028413901,1.0975416,9.744997,0.026982138,0.04909745,0.8626366,0.5027121,-0.0424726,1.0793126,9.369844,-0.006566608,0.020310672,-0.006108473
2023/4/26 16:14,2242,0.015016351,0.01955247,0.050031662,-0.040955015,1.0881757,9.746085,0.026090017,0.04917409,0.8642178,0.5000288,0.012562319,1.092473,9.65833,-0.022448637,0.020310672,-0.003665084
2023/4/26 16:14,2282,-0.031221606,0.050842285,-0.022742271,-0.033462383,1.0906485,9.745756,0.026366396,0.04902296,0.86334735,0.5015305,-0.05922236,1.1187941,9.530164,7.64E-04,-0.032222193,-0.023212196
2023/4/26 16:14,2322,-0.12996699,-0.068389535,0.025425911,-0.031651422,1.0867901,9.746192,0.026564345,0.0488031,0.8629202,0.50227606,-0.1369891,0.95473623,9.600752,-0.002901525,-0.01267508,-0.002443389
2023/4/26 16:14,2362,-0.05604566,0.047692537,0.10863209,-0.036824297,1.0826011,9.74664,0.02621452,0.048678484,0.86284035,0.5024438,-0.096311115,1.121187,9.665508,-4.58E-04,-0.00167983,0.002443389
2023/4/26 16:14,2402,-0.08407974,0.007744193,0.024820328,-0.032021582,1.0896739,9.74587,0.02651244,0.048882537,0.8628103,0.5024599,-0.11306087,1.0745269,9.575627,0.023975754,-0.029778805,0.023212196
2023/4/26 16:14,2441,-0.022596221,-0.021136165,0.024950981,-0.0336838,1.0996088,9.744748,0.026766168,0.049269814,0.86288285,0.502284,-0.028115666,1.0685449,9.550503,0.02519745,0.006872032,0.025655584
2023/4/26 16:14,2482,0.008763311,0.08292246,-0.008975029,-0.027830161,1.1095539,9.743639,0.027211467,0.049643572,0.86254793,0.50279826,0.025722843,1.1283654,9.521789,0.014202199,-0.022448637,0.023212196
2023/4/26 16:14,2522,0.043090243,-0.012785673,0.020198822,-0.017511187,1.123526,9.742063,0.028064542,0.04982731,0.86190933,0.50382733,0.04127619,1.0793126,9.557681,0.04718795,0.010537115,0.01099525
2023/4/26 16:14,2561,4.80E-04,-0.007431507,-0.08638191,-0.016349064,1.1337467,9.74088,0.028340068,0.050400183,0.8627192,0.50236666,-0.00418744,1.0852946,9.453593,0.020310672,-0.005344913,0.001221695
2023/4/26 16:14,2602,-0.05956309,-0.04267764,-0.029752731,-0.015550349,1.1389594,9.7402725,0.028609486,0.050628,0.86233777,0.5029829,-0.0735793,1.0733305,9.509825,0.015423893,-0.013896775,0.017103724
2023/4/26 16:14,2642,-0.030029945,-0.03455925,-0.013762474,-0.027978951,1.1282475,9.741492,0.028088309,0.050612245,0.86310744,0.5016922,-0.08075777,1.0577772,9.556485,-0.044439137,0.05207473,0.031764057
2023/4/26 16:14,2682,0.073380776,-0.033353567,0.20799065,-0.03269894,1.1224103,9.742151,0.02723681,0.0503775,0.86356246,0.5009791,0.05802595,1.0649556,9.775578,0.06429167,-0.009009997,0.01343864
2023/4/26 16:14,2722,0.037738226,0.029571176,-0.19353199,-0.02563888,1.1582985,9.73797,0.028271914,0.051450714,0.8637174,0.5005455,0.017347964,1.1750255,9.317053,0.07406523,0.008093726,-0.004886778
2023/4/26 16:14,2761,0.024978891,0.054593086,-0.30835724,-0.03161528,1.1635581,9.737327,0.028530851,0.052295852,0.86351424,0.50079364,0.02213361,1.1762218,9.329018,-0.07742489,0.02519745,0.002443389
2023/4/26 16:14,2802,0.12333712,-0.05069089,0.08831787,-0.030609993,1.1389117,9.740242,0.02779675,0.05122515,0.86384225,0.50037974,0.061615184,1.0553843,9.617502,-0.010231691,-0.01267508,-0.03787253
2023/4/26 16:14,2841,-0.088524096,-0.007986546,-0.078977585,-0.023287129,1.1385263,9.740308,0.028165003,0.050908078,0.8636316,0.50075495,-0.1274178,1.1175977,9.412915,-0.016340164,-0.002901525,-0.019547112
2023/4/26 16:14,2881,-1.70E-04,0.065351725,-0.025205612,-0.036530755,1.1140068,9.743101,0.027036993,0.050347146,0.86437654,0.49958718,0.028115666,1.121187,9.595966,-0.10430217,0.03130592,-0.001221695
2023/4/26 16:14,2922,0.08365928,0.007474899,0.15478134,-0.025526475,1.0996945,9.744763,0.026666608,0.049294285,0.8643101,0.49982703,0.030508488,1.1403296,9.6224375,0.039857782,-0.048104223,-0.019547112
2023/4/26 16:14,2961,0.07969863,0.2566843,-0.18262768,-0.016235715,1.1097244,9.743646,0.02775171,0.049512617,0.8638505,0.5005404,0.109471634,1.3510475,9.381809,-0.08231167,0.023975754,0.007330167
2023/4/26 16:14,3001,0.14928804,0.10426688,0.08160591,-0.014879733,1.0842785,9.746512,0.02723709,0.048617065,0.86387926,0.5006068,0.13579269,1.127169,9.670294,-0.0762032,0.010537115,-0.014660334
2023/4/26 16:14,3042,0.1939821,0.1433829,0.043424606,-0.021442147,1.066993,9.748407,0.026621664,0.047643792,0.8634557,0.5014635,0.17542382,1.2731313,9.628419,-0.06520794,0.12171131,0.004886778
2023/4/26 16:14,3082,0.33139852,0.5492307,0.14483738,-0.02848072,1.0684019,9.748236,0.02602749,0.047888182,0.8629541,0.50233406,0.3130111,1.6574783,9.745667,-0.07131642,-0.02367033,-0.018325418
2023/4/26 16:14,3122,0.41006398,0.44613338,0.008639336,0.0060173,1.069338,9.748172,0.027731638,0.04707571,0.86161894,0.5046065,0.4339982,1.4659029,9.597163,-0.09330692,0.014202199,-0.02687728
2023/4/26 16:14,3162,0.28302175,0.40931606,0.012523651,0.016613115,1.0943573,9.745383,0.028875578,0.047408856,0.8606424,0.50617516,0.25319055,1.5245271,9.505039,0.11682454,0.048409645,-0.014660334
2023/4/26 16:14,3201,0.0992935,0.5583161,-0.7022848,0.025090741,1.1839118,9.734892,0.031404346,0.050693613,0.8593959,0.5078214,0.119042926,1.7125132,8.791679,0.015423893,0.03130592,-0.014660334
2023/4/26 16:14,3241,0.2939723,0.20679009,0.10341835,0.012750542,1.1863028,9.734625,0.031634778,0.051859494,0.8581829,0.50973713,0.2914757,1.2468102,9.846166,-0.062764555,0.06673507,-0.047646087
2023/4/26 16:14,3282,0.04006595,-0.109148264,-0.09794426,0.01408615,1.194058,9.733675,0.03160128,0.05184557,0.8576844,0.51057905,0.06759724,1.0470095,9.325428,0.06795676,-0.013896775,-0.030542362
2023/4/26 16:15,3323,0.12779826,-0.09452593,-0.33222198,0.02170558,1.1919235,9.733922,0.03210279,0.05189964,0.85757464,0.5107266,0.24122643,1.1307583,9.2285185,-0.062764555,-0.00167983,0.042759307
2023/4/26 16:15,3361,0.2449966,0.25280356,0.2806368,0.048751157,1.15283,9.738531,0.032157402,0.04967307,0.85823953,0.5098268,0.25319055,1.358226,9.8473625,-0.08353336,-0.00167983,0.004886778
2023/4/26 16:15,3402,-0.014845908,-0.001616836,0.5473175,0.06392136,1.1502656,9.738747,0.0326624,0.048758566,0.85785323,0.5105326,0.04965107,1.0733305,9.987493,0.09849912,-0.06642964,-0.003665084
2023/4/26 16:15,3441,-0.23971283,0.007107377,-0.5311098,0.09179805,1.2258676,9.729297,0.035235867,0.050637722,0.8578349,0.5102093,-0.17183457,1.2635599,8.814411,0.21089502,-0.109188944,0.031764057
2023/4/26 16:15,3482,-0.4146034,0.47866464,-1.2114382,0.09935562,1.3249797,9.716221,0.038616195,0.054897994,0.85773575,0.5096905,-0.36565322,1.8538394,8.123632,0.22189027,-0.02367033,0.10995251
2023/4/26 16:15,3522,-1.1368905,0.8467088,-1.9029713,0.06861625,1.4529529,9.698175,0.040913187,0.061348576,0.85727966,0.509543,-1.1617154,2.250001,7.417451,0.020310672,-0.07375981,0.05619795
2023/4/26 16:15,3561,-2.09647,1.0962701,-1.1114216,0.0764614,1.3660302,9.710741,0.04007171,0.06012417,0.85771817,0.5090175,-1.979313,2.3265715,8.49108,-0.61619216,-0.029778805,0.25533417
2023/4/26 16:15,3602,-1.4142369,0.68685603,0.7043171,0.039167594,1.0825356,9.746639,0.031057924,0.048231944,0.86185795,0.50389475,-1.1186446,1.5641582,10.4950695,-0.86175275,0.22066857,0.39216393
2023/4/26 16:15,3641,-0.21330999,0.8959346,1.7834854,-0.014057829,0.8029731,9.77371,0.020784972,0.037741322,0.8664461,0.49740803,-0.08315059,1.5233307,11.121092,-0.3669665,-0.006566608,0.46180052
2023/4/26 16:15,3682,0.53311723,0.9934781,0.8554907,-0.014728619,0.72735643,9.779628,0.01781427,0.032855384,0.871418,0.4891154,0.63978094,1.7472092,10.15499,-0.11529742,0.15714046,0.42881477
2023/4/26 16:15,3721,0.7076478,1.0948339,0.15909004,-0.079631396,0.7415871,9.778246,0.014888375,0.034606513,0.8747616,0.48308685,0.49022955,1.8885353,9.404541,0.13026318,0.10094251,0.17470232
2023/4/26 16:15,3762,0.20496273,1.245779,-0.31128502,-0.036275566,0.80612206,9.773395,0.017529847,0.036981303,0.8760045,0.48056337,0.22567308,2.0057836,9.14477,0.07406523,-0.22402823,0.067193195
2023/4/26 16:15,3802,0.24786861,1.1169648,-0.06671429,0.003020763,0.8261735,9.771787,0.020413432,0.036892273,0.87610894,0.48026592,0.24481566,1.9076779,9.410522,-0.05054761,0.008093726,-0.05131117
2023/4/26 16:15,3842,0.28954473,1.070311,0.46996498,0.011314928,0.81718564,9.772536,0.02047761,0.036145687,0.8751936,0.48198584,0.13938192,1.8933209,10.083205,0.059404895,-0.006566608,-0.24189551
2023/4/26 16:15,3882,-0.27846876,1.0865095,0.30981922,0.0119409,0.91328794,9.764024,0.02271149,0.039680243,0.87232494,0.48678425,-0.32856447,2.0081763,9.436844,0.35749835,-0.10430217,-0.29442838
2023/4/26 16:15,3921,-0.68269014,1.1462889,-0.3743801,0.025809713,1.0498848,9.750255,0.027148202,0.04529144,0.8693428,0.49138048,-0.7033403,2.1638594,9.015408,0.31229568,-0.017561859,-0.25777754
2023/4/26 16:15,3961,-0.67534083,0.9824995,-0.31136513,0.021923754,1.193959,9.733672,0.030751284,0.051691283,0.8667562,0.49509192,-0.60388863,2.0775683,9.062218,0.33917293,-0.06398625,-0.1795891
2023/4/26 16:15,4002,-0.557183,1.2132361,-0.06151676,0.037176117,1.3580875,9.712086,0.035302065,0.057705685,0.8645664,0.49794456,-0.44955155,2.5504498,9.525378,0.29274854,-0.038330667,-0.16126367
2023/4/26 16:15,4042,-0.37164772,0.84586465,1.8496065,0.03280331,1.4152583,9.703936,0.037820138,0.061713554,0.86244017,0.50095713,-0.36086756,2.2224836,11.512468,-0.056656085,-0.029778805,-0.21135315
2023/4/26 16:15,4082,0.21429847,-0.23096395,3.1177835,0.018509245,1.309418,9.71882,0.03563951,0.05812827,0.86040694,0.50502557,0.27233312,0.6782157,12.725181,-0.5624376,0.1913479,-0.34207445
2023/4/26 16:15,4122,-0.11001287,-1.830088,4.0257673,-0.12133918,1.0878437,9.745372,0.024074249,0.0511697,0.8581904,0.5102072,-0.30343983,-0.79770726,13.497165,-0.1653869,0.24876754,-0.18691926
2023/4/26 16:15,4162,-0.010689974,-2.0534148,2.5643368,-0.12703463,1.1315204,9.740324,0.023240404,0.052411493,0.8576049,0.5111034,0.010169496,-0.96879405,11.6514015,0.4772244,-0.1861557,-0.03787253
2023/4/26 16:15,4201,0.6399837,-2.374795,0.96288204,-0.052211627,1.3630031,9.711328,0.03104631,0.058745656,0.85734326,0.5104387,0.6206384,-0.98090774,10.2317095,0.80830365,-0.13850962,-0.05986303
2023/4/26 16:15,4241,0.6422403,-2.1775694,-0.6029854,0.001813298,1.6509819,9.6666765,0.04216012,0.07111279,0.85577285,0.51070374,0.6361917,-0.37268212,8.6706915,0.7911999,-0.12751436,-0.10995251
2023/4/26 16:15,4282,0.46901223,-2.0056977,-1.3044109,0.002077187,1.9015704,9.620521,0.049584053,0.081283696,0.85351866,0.5122893,0.408724,-0.18484555,8.12124,0.47844613,0.12171131,-0.21013145
2023/4/26 16:15,4323,0.09617304,-2.3395457,-0.9852009,-0.06432053,2.0030825,9.599683,0.05040035,0.08879479,0.8515488,0.5142372,-0.12502499,-0.3786642,8.409725,0.31229568,0.18646112,-0.1783674
2023/4/26 16:15,4361,-0.07738088,-2.3127017,-0.98800945,-0.115076475,2.0982864,9.578849,0.050478064,0.09463236,0.85044247,0.5150187,-0.17542382,-0.23509483,8.296065,0.26098448,0.004428643,-0.015882028
2023/4/26 16:15,4402,0.004479244,-1.792568,-0.81182957,-0.13036868,2.1601598,9.564889,0.051671002,0.09801192,0.85063267,0.51395315,-0.15149559,0.41724846,8.4886875,0.12048962,0.10582929,-0.002443389
2023/4/26 16:15,4442,0.19049549,-1.6775181,-0.34883213,-0.18038559,2.162582,9.563529,0.050032046,0.09957369,0.85072345,0.51366484,0.008973085,0.4124628,9.030961,0.014202199,0.12781979,-0.052532863
2023/4/26 16:15,4481,0.077285185,-1.5915549,0.119874954,-0.21863288,2.1857746,9.557456,0.0483156,0.101013176,0.8505711,0.51380026,-0.089132644,0.647109,9.330214,0.21822518,0.05451812,-0.019547112
2023/4/26 16:15,4523,0.54544616,-0.9154606,-0.5704508,-0.23678643,2.245298,9.543216,0.049237896,0.104641706,0.85006523,0.51382375,0.3429214,1.398904,8.608479,0.075286925,0.07284354,-0.12461284
2023/4/26 16:15,4563,0.37083048,-0.6866456,-0.36475468,-0.2876545,2.23533,9.544158,0.04804559,0.10562405,0.84912795,0.5152833,-0.016151553,1.4850456,8.965158,-0.10185878,0.20356485,-0.23212196
2023/4/26 16:15,4602,0.40441924,-0.77035975,-0.15016079,-0.38139403,2.1474645,9.561031,0.041549545,0.10453709,0.8468309,0.5198298,0.12861422,1.249203,9.104092,-0.27045262,0.06429167,-0.24678229
2023/4/26 16:15,4641,0.29984495,-0.73719656,0.23051834,-0.41195145,2.0282466,9.585765,0.037372798,0.10006219,0.8449416,0.52408445,-0.21849462,1.2312568,9.616305,-0.2545706,0.006872032,-0.25044736
2023/4/26 16:15,4682,-0.1803529,-0.5288863,0.13533688,-0.42951995,1.9626873,9.598633,0.035043396,0.09719463,0.84303254,0.527846,-0.6756733,1.4216357,9.334999,-0.052991,-0.017561859,-0.18569757
2023/4/26 16:15,4722,-0.26914477,-0.20965648,-0.16949844,-0.42763573,1.9333841,9.604663,0.034497652,0.09571792,0.84111917,0.5311935,-0.6768697,1.7017455,9.108877,-0.109188944,-0.05054761,-0.18936265
2023/4/26 16:15,4762,-0.115296036,-0.08084488,-0.025356293,-0.4258801,1.8624263,9.618752,0.033123102,0.09257689,0.83914983,0.53493917,-0.43878385,1.749602,9.28834,-0.18004723,-0.029778805,-0.1575986
2023/4/26 16:15,4801,0.060911745,0.095454216,0.049663544,-0.42796445,1.8137347,9.627959,0.03179651,0.090154484,0.8377656,0.5375965,-0.37642092,1.9531415,9.366256,-0.035887275,-0.040774055,-0.11361759
2023/4/26 16:15,4841,-0.07950175,0.3724785,-0.28393173,-0.40798828,1.8357263,9.624658,0.032952692,0.09004235,0.8363248,0.5397845,-0.5093721,2.2057338,8.918499,0.028862532,-0.09086353,-0.098957255
2023/4/26 16:15,4882,-0.3678969,0.43933988,-0.46923637,-0.4023493,1.8594298,9.620345,0.034662947,0.09105776,0.83421034,0.5427708,-0.78349984,2.2380369,8.887392,-0.094528615,-0.072538115,-0.008551862
2023/4/26 16:15,4921,-0.23882085,0.14366007,0.08861256,-0.37755045,1.8494326,9.623277,0.0351232,0.09036396,0.83379996,0.54348725,-0.54406804,1.830958,9.388988,-0.05054761,-0.16660859,0.0659715
2023/4/26 16:15,4961,-0.26489437,0.10853982,0.092671394,-0.3241388,1.8501292,9.62509,0.03742725,0.08854342,0.83441246,0.5426925,-0.57876396,1.919642,9.338589,0.059404895,-0.15561333,0.14049487
2023/4/26 16:15,5001,-0.23207942,0.5869515,-0.22947216,-0.26333576,1.9177357,9.613705,0.040865652,0.08934003,0.8353897,0.54080725,-0.44835514,2.475076,9.028568,0.10582929,-0.1641652,0.23212196
2023/4/26 16:15,5042,0.071551055,0.9046929,-0.15408611,-0.1834922,2.000839,9.598613,0.047003858,0.09119542,0.8356812,0.539547,-0.035294134,2.8473094,9.070593,7.64E-04,-0.18982078,0.18203248
2023/4/26 16:15,5081,0.41261995,1.1553255,-0.07572651,-0.13368046,2.0449374,9.590138,0.051103417,0.0915232,0.83483845,0.54042274,0.23165514,3.2303107,9.296714,-0.11285403,0.14370182,0.11972606
2023/4/26 16:15,5122,-0.17927016,1.2117646,-0.3404436,-0.15828732,2.109412,9.575788,0.052032016,0.094683915,0.8333479,0.54208755,-0.4316054,3.2362926,8.762815,-0.051769305,0.021532366,0.11728267
2023/4/26 16:15,5162,-0.28947842,1.0533972,-0.70965195,-0.17038707,2.1583505,9.564669,0.05315861,0.097309336,0.8326405,0.54260004,-0.46271208,3.1453655,8.487492,-0.17271706,0.07895201,0.24800399
2023/4/26 16:15,5202,-0.27244443,1.238008,-1.1055231,-0.21764375,2.1400812,9.567815,0.051532295,0.09845968,0.8331978,0.5416933,-0.45194438,3.2519956,8.069795,-0.55266404,0.15836215,0.23700874
2023/4/26 16:15,5241,-0.054659307,0.59101117,0.013339996,-0.28395635,1.9157493,9.613515,0.04290312,0.09176105,0.83416647,0.54213053,-0.27352953,2.191377,9.706186,-1.0757021,0.25365433,0.13927318
2023/4/26 16:15,5282,0.70236146,-0.12702775,2.154069,-0.3633096,1.4691017,9.689176,0.028689051,0.076813035,0.83746177,0.5403096,0.43040898,1.2996018,11.809327,-0.99858254,0.26342788,0.17348062
2023/4/26 16:15,5322,1.4086875,0.60259473,3.894332,-0.40365452,1.1983504,9.724783,0.016197281,0.0634916,0.8405733,0.5377202,1.1377872,1.8490537,13.345221,-0.34741938,0.06795676,0.1123959
2023/4/26 16:15,5364,0.99465895,0.72261393,3.1686535,-0.3639903,1.1983317,9.726351,0.016660776,0.061349057,0.8402434,0.53846985,0.37881374,1.662264,12.284602,0.28419667,-0.20570281,-0.21257484
2023/4/26 16:15,5402,-0.25407827,-1.0244374,2.1392107,-0.277803,1.3683283,9.706744,0.025134351,0.06566315,0.8362881,0.5437635,-0.61106706,0.022283161,11.3880415,0.5639647,-0.26923093,-0.30298024
2023/4/26 16:15,5441,-0.330767,-2.252125,1.2514982,-0.22199689,1.6046541,9.671927,0.033840824,0.07245511,0.8329109,0.54759884,-0.5021936,-0.7103692,10.617104,0.71789825,-0.059099473,-0.1795891
2023/4/26 16:15,5482,-0.14887905,-2.5248456,0.31208515,-0.20895776,1.8845339,9.621604,0.041849297,0.08329879,0.8303729,0.5493548,-0.3309573,-0.55947185,9.36147,0.9316948,-0.1446181,-0.11728267
2023/4/26 16:15,5521,-0.03665711,-2.4330854,-0.7887087,-0.14614424,2.189124,9.558073,0.054603696,0.09643554,0.82753175,0.5503725,-0.13579269,-0.3056831,8.341529,0.7728745,-0.19348587,-0.09162709
2023/4/26 16:15,5561,-0.10068671,-2.5522332,-0.9006529,-0.09592378,2.4239895,9.501866,0.06356226,0.10470267,0.8252287,0.5513572,-0.19935204,-0.18245272,8.318797,0.49066305,-0.096972,-0.043981
2023/4/26 16:15,5602,0.04760569,-2.4136465,-0.7910309,-0.05460655,2.5335522,9.473569,0.06962443,0.10965036,0.82407945,0.5513821,0.061615184,0.053389855,8.52473,0.22555535,-0.11774081,0.030542362
2023/4/26 16:15,5642,-0.072529644,-2.5495872,-0.1788683,-0.027678013,2.5597134,9.466651,0.071882784,0.110302985,0.82399714,0.5510851,-0.18260227,-0.036340993,9.086145,0.06306998,-0.03466558,0.041537613
2023/4/26 16:15,5682,0.007914172,-2.4159474,0.27618313,0.008512563,2.553629,9.46833,0.07291176,0.10931023,0.824902,0.5497926,0.07477571,0.083300136,9.533753,0.039857782,-0.15805672,0.08185353
2023/4/26 16:15,5722,0.120023996,-2.4842217,0.27312756,0.059009284,2.5335457,9.473545,0.074641846,0.107094064,0.82578987,0.54866254,0.15867405,-0.026769703,9.441629,-0.033443887,-4.58E-04,0.08429692
2023/4/26 16:15,5762,-0.37106976,-1.8310244,0.45286655,0.050062977,2.495606,9.483662,0.072862945,0.10584799,0.8276746,0.5462984,-0.31420752,0.62676996,9.676275,-0.021226943,-0.031000499,0.15271181
2023/4/26 16:15,5802,-0.24963194,-1.5876927,0.36034298,0.102063276,2.4637647,9.491567,0.07374428,0.10343327,0.8292188,0.5442973,-0.13579269,0.7860422,9.489486,-0.100637086,-0.08842014,0.14538164
2023/4/26 16:15,5842,-0.1727821,-1.4185236,0.47741413,0.10553345,2.3850074,9.511624,0.07226122,0.10030171,0.83106613,0.542261,-0.04965107,0.8769695,9.756435,-0.13728791,0.08994726,0.18203248
2023/4/26 16:15,5882,0.15174761,-1.3519335,0.2664976,0.120216265,2.355952,9.518688,0.070757955,0.098340265,0.83333135,0.5393342,0.3333501,1.0182956,9.208179,0.04963134,-0.031000499,0.18936265
2023/4/26 16:15,5921,0.36026287,-0.7424532,-0.76460457,0.1386308,2.343937,9.521404,0.07126834,0.09772498,0.83517665,0.5365171,0.5476573,1.6108183,8.372636,-0.06765133,0.07284354,0.19913621
2023/4/26 16:15,5961,0.39515364,-0.48811972,-0.830595,0.13611567,2.2950194,9.533349,0.06948611,0.09588334,0.83686805,0.53444356,0.39077786,1.6634604,8.456385,-0.140953,-0.006566608,0.0452027
2023/4/26 16:15,6002,-0.19283211,-0.6233454,-0.78266716,0.16934742,2.2432928,9.545121,0.06925114,0.09305467,0.83687115,0.5349689,-0.06999006,1.5137594,8.381011,-0.12140589,-0.09941539,-0.0219905
2023/4/26 16:15,6041,-0.26588312,-0.5042349,-0.6052618,0.17761393,2.14312,9.567961,0.06755707,0.088442326,0.83679366,0.536088,-0.03888337,1.506581,8.874231,-0.41827765,0.041079476,0.01343864
2023/4/26 16:15,6082,-0.110128075,-0.32569313,0.2715845,0.13653079,1.9886457,9.601929,0.06175351,0.08251749,0.8372461,0.5370254,-0.055633128,1.7125132,9.593574,-0.33153734,0.17790927,-0.028098974
2023/4/26 16:15,6121,0.101417445,0.29216945,-0.014432907,0.06549194,1.8608189,9.628263,0.05574483,0.07915885,0.83737177,0.5379916,0.21729821,2.1865911,9.321838,-0.3205421,0.16691402,0.009773556
2023/4/26 16:15,6161,0.06666904,0.6353853,0.46217632,0.010301692,1.742529,9.650589,0.049807157,0.07535354,0.8373292,0.5391854,0.044865426,2.3217857,9.807881,-0.23746687,0.107050985,-0.061084725
2023/4/26 16:15,6201,-0.12236872,0.6129092,0.54120064,-0.014595765,1.6883999,9.660202,0.046708677,0.07331833,0.8363178,0.5413089,-0.17063816,2.2535903,9.889236,-0.11774081,-0.020005248,-0.13560809
2023/4/26 16:15,6241,-0.25390446,0.53338206,0.60607815,-0.023401218,1.6636277,9.66448,0.04565987,0.071934715,0.83436835,0.5445824,-0.28070801,2.1734307,10.000652,-0.013896775,0.0361927,-0.1111742
2023/4/26 16:15,6281,-0.13861224,0.8086798,0.36536217,-0.06956839,1.7007457,9.657795,0.0448824,0.073707,0.8325906,0.54712504,-0.21251257,2.5049863,9.615109,0.1693574,0.06795676,-0.17470232
2023/4/26 16:15,6321,-0.15739788,0.74662244,-0.03140545,-0.09897145,1.7854236,9.642243,0.046248738,0.07826281,0.8289561,0.55187654,-0.25558338,2.3732314,9.319446,0.12659809,0.005650337,-0.24800399
2023/4/26 16:15,6361,-0.29470128,0.37678015,0.009890556,-0.15425311,1.8610919,9.627197,0.047047764,0.08236031,0.82480156,0.5574098,-0.4459623,2.1686451,9.311071,0.08750387,0.044744562,-0.21135315
2023/4/26 16:15,6402,-0.14095,0.52267194,-0.031015396,-0.15227076,1.9099699,9.617651,0.048501864,0.0850456,0.8209605,0.56252885,-0.2268695,2.4272194,9.2177515,0.009315421,-0.16294351,-0.1563769
2023/4/26 16:15,6441,-0.16949049,0.90987,0.31190586,-0.13190658,1.9346434,9.61302,0.05084775,0.08516762,0.81772727,0.56699485,-0.29745775,2.7934709,9.727721,-0.116519116,-0.049325917,-0.11972606
2023/4/26 16:15,6481,-0.3658292,0.86885226,0.85955715,-0.13052551,1.9633099,9.607224,0.05191107,0.08577886,0.8143642,0.5716276,-0.4531408,2.7922745,10.389636,0.027640838,-0.1201842,-0.09529217
2023/4/26 16:15,6522,-0.24087761,0.8766103,1.0920258,-0.113409996,2.07041,9.584932,0.055948652,0.08915147,0.8111955,0.5752249,-0.34770703,3.0269206,10.351351,0.38804072,-0.100637086,-0.046424393
2023/4/26 16:15,6561,-0.34171632,1.2132657,0.012729645,-0.111331984,2.2996774,9.532549,0.06281162,0.0971829,0.8073685,0.57858986,-0.4651049,3.5273197,9.388988,0.24510247,-0.05787778,-0.114839286
2023/4/26 16:15,6601,0.02106402,0.31715226,0.95375633,-0.1230548,2.364959,9.516418,0.06657061,0.10203448,0.80243665,0.58416843,-0.002991028,2.3504996,10.891232,-0.09330692,0.027640838,-0.15882029
2023/4/26 16:15,6642,-0.050823748,-0.9157345,1.8907976,-0.16613926,2.3021543,9.531153,0.06376689,0.100531,0.8016449,0.5858265,-0.25319055,1.3307085,11.4598255,0.15469708,0.119267926,-0.036650836
2023/4/26 16:15,6681,0.33072823,-0.9568522,1.3670578,-0.17709312,2.3677368,9.514875,0.063628495,0.10305765,0.802689,0.58396995,0.1538884,1.5017953,10.843375,0.44423866,-0.010231691,0.105065726
2023/4/26 16:15,6721,0.6154014,-0.985425,0.102274895,-0.1507029,2.5508635,9.467881,0.06948393,0.10926117,0.802336,0.5826585,0.4758726,1.5761224,9.65833,0.4185831,-0.01267508,0.02687728
2023/4/26 16:15,6761,0.678711,-1.7475076,0.23880291,-0.15594493,2.6584024,9.438165,0.0736701,0.114780985,0.8010791,0.5828125,0.51056856,0.8003992,9.770792,0.35261157,0.023975754,-0.043981
2023/4/26 16:15,6802,0.43226248,-2.2695918,-0.30879593,-0.13422237,2.8048596,9.396016,0.07871076,0.120011576,0.799268,0.58358586,0.22208385,0.56934226,8.985497,0.5786251,-0.13240114,-0.03787253
2023/4/26 16:15,6841,0.03811319,-2.1726317,-1.3477383,-0.08124371,2.9888318,9.339736,0.08637856,0.12594321,0.79730374,0.5839382,-0.060418773,0.83988076,8.056634,0.31351736,-0.116519116,-0.017103724
2023/4/26 16:15,6883,0.28784218,-2.5730786,-0.72353935,-0.055331685,3.0168447,9.3309145,0.08986902,0.12733114,0.79638755,0.58436054,0.29506496,0.39930227,8.865856,0.009315421,0.028862532,0.052532863
2023/4/26 16:15,6921,0.50072616,-2.4917183,-0.20406914,-0.050315686,3.0069957,9.334123,0.0894656,0.12679379,0.796806,0.5839687,0.47946185,0.52866423,9.131609,0.08872557,-0.08597675,0.028098974
2023/4/26 16:15,6962,0.54198354,-2.3310266,-0.25164795,-0.005689542,3.017454,9.33088,0.09170306,0.12582226,0.7964416,0.5843287,0.55722857,0.7716853,9.116056,0.07406523,-0.07131642,-0.020768806
2023/4/26 16:15,7001,0.5432216,-2.017884,-0.3181038,0.013979996,2.9985466,9.336965,0.09239197,0.124854535,0.79578084,0.5853272,0.56440705,1.0015458,9.08136,-0.08842014,-0.06765133,-0.04031592
2023/4/26 16:15,7041,0.69565487,-2.0517268,0.15786362,0.04347611,2.9297535,9.358688,0.09179448,0.12065373,0.79495305,0.58742326,0.6840482,0.88295156,9.58161,-0.13973132,-0.059099473,-0.1111742
2023/4/26 16:15,7081,0.35794318,-1.7332954,-0.004600525,0.058243345,2.8690403,9.377399,0.09075911,0.117310084,0.7937496,0.5898836,0.4194917,1.1199906,9.390183,-0.12140589,-0.072538115,-0.070858285
2023/4/26 16:15,7122,0.16552272,-1.5514858,0.060141563,0.09081318,2.8097935,9.395062,0.090342835,0.11368915,0.7928751,0.5918294,0.25558338,1.2396317,9.470344,-0.10430217,-0.13484453,-0.035429142
2023/4/26 16:15,7163,0.20679387,-1.304244,-0.019191742,0.13824658,2.7058353,9.4249525,0.089094624,0.1080766,0.7944926,0.59090024,0.29267213,1.4790635,9.296714,-0.005344913,-0.006566608,0.008551862
2023/4/26 16:15,7201,0.072255716,-0.88851106,-0.61910534,0.14242941,2.6329122,9.445521,0.08724715,0.10504974,0.7940324,0.5923386,0.22447668,1.6993527,8.795268,-0.094528615,-0.07375981,-0.020768806
2023/4/26 16:15,7241,0.21433495,-1.2755781,-0.001466751,0.18577337,2.4996934,9.480897,0.085022,0.09834887,0.79465854,0.5929727,0.49980083,1.135544,9.561271,-0.2753394,-0.021226943,0.009773556
2023/4/26 16:15,7281,0.6126193,-0.6544951,0.20306492,0.19396971,2.3163466,9.527187,0.07987179,0.090939425,0.79760563,0.590911,0.8337491,1.7687446,9.542128,-0.19470756,0.1485886,0.08063184
2023/4/26 16:15,7322,0.53226393,-0.25268006,-0.0682497,0.22810678,2.2443419,9.543652,0.077694006,0.08619338,0.79866654,0.5904796,0.66131634,1.9854445,9.293125,-0.07131642,-0.140953,-0.067193195
2023/4/26 16:15,7361,0.114181906,-0.22132242,-0.45662594,0.28353056,2.2046752,9.551409,0.07944867,0.08261602,0.7969487,0.5930728,0.30463624,2.0201404,8.971141,-0.118962504,-0.022448637,-0.11850437
2023/4/26 16:15,7402,-0.065980196,0.03984642,-0.16924572,0.2697033,2.1380124,9.566951,0.0772638,0.07978799,0.79494935,0.59642243,0.15508482,2.1698415,9.394969,-0.23868857,-0.017561859,-0.1575986
2023/4/26 16:15,7442,-0.026031256,-0.05682695,0.4788952,0.2694819,2.0514941,9.585882,0.07479309,0.07604403,0.79280305,0.60007215,0.301047,1.9471594,10.01142,-0.21181129,-0.06520794,-0.13072132
2023/4/26 16:15,7481,0.13480029,0.24826837,0.57038784,0.26714113,1.9933398,9.598209,0.07300435,0.07308512,0.7915925,0.6022544,0.45912284,2.2966611,9.946815,-0.033443887,0.0581832,-0.012216945
2023/4/26 16:15,7522,0.04926747,0.54348254,-0.31772423,0.25106227,2.0445716,9.587861,0.073659115,0.07484945,0.78956,0.6046213,0.19336998,2.5959134,8.953195,0.18401773,0.039857782,-0.009773556
2023/4/26 16:15,7562,-0.23769636,0.41918707,-1.3551645,0.2279612,2.176616,9.559329,0.07688937,0.07990942,0.7871852,0.60666466,-0.055633128,2.5983062,7.982456,0.16324893,0.06429167,-0.01343864
2023/4/26 16:15,7601,-0.31979504,0.38153934,-1.1751204,0.17733297,2.2347212,9.546988,0.07775069,0.08478828,0.78456545,0.6092806,-0.12622139,2.4523442,8.378618,-0.12507097,0.069178455,0.01099525
2023/4/26 16:15,7643,0.025408953,-0.056458473,0.13854027,0.15791893,2.1671655,9.562889,0.07541165,0.083668105,0.783953,0.6105165,0.28788647,1.9938195,9.727721,-0.20692451,0.03863609,0.10384403
2023/4/26 16:15,7681,0.118261024,0.2962854,0.57401943,0.15270326,2.111181,9.575489,0.07266037,0.080819316,0.785565,0.60916036,0.25438696,2.4427729,9.907332,-0.062764555,0.07773031,0.16615045
2023/4/26 16:15,7722,0.10620682,0.7147188,0.20410061,0.15356454,2.1358626,9.57,0.07304315,0.0815581,0.7860007,0.60845363,0.2711367,2.8652556,9.506236,0.0581832,0.039857782,0.19180603
2023/4/26 16:15,7761,0.05122079,1.1639464,-0.20333004,0.1537926,2.2339184,9.547584,0.07566625,0.08470324,0.7853712,0.6085163,0.20294127,3.4434214,9.173484,0.07406523,0.04718795,0.16981554
2023/4/26 16:15,7804,0.20688127,1.2826185,-0.08974171,0.16684212,2.322133,9.526292,0.08001219,0.08883869,0.78344446,0.60985285,0.43878385,3.524927,9.313464,-0.005344913,0.001985254,0.14782503
2023/4/26 16:15,7841,0.2446244,0.8317981,0.32982254,0.18787795,2.3687658,9.514412,0.08231854,0.08986058,0.7820901,0.6111332,0.40393838,3.0352955,9.940832,-0.03466558,0.03130592,0.1551552
2023/4/26 16:15,7881,0.44172397,0.8695915,0.2818842,0.22599575,2.4196594,9.500767,0.08504474,0.09087373,0.7832596,0.60910904,0.7320542,3.3285658,9.520593,0.15836215,-0.03466558,0.23823044
2023/4/26 16:15,7921,0.14934877,1.1946177,-0.080854416,0.2589125,2.5168006,9.474653,0.08858919,0.093263,0.78440154,0.6067686,0.2783152,3.74387,9.180662,0.2817533,-0.022448637,0.14293826
2023/4/26 16:15,7962,-0.41512635,0.9428475,-0.02141285,0.2965083,2.5636282,9.460988,0.092676036,0.09539003,0.78400975,0.60633373,-0.05922236,3.1465619,9.708579,-0.23502348,-0.11529742,0.046424393
2023/4/26 16:15,8001,-0.044618666,-0.77768946,2.4555159,0.30635008,2.3874238,9.506669,0.08949741,0.08923257,0.7840582,0.6076845,0.34770703,1.4335998,12.1301155,-0.5172349,0.1241547,0.076966755
2023/4/26 16:15,8041,0.37485373,-1.3792735,3.2551098,0.23620397,2.2822385,9.534463,0.08151908,0.0849128,0.7858842,0.60706717,0.56440705,1.0159028,12.452249,0.20600824,0.22189027,0.14171657
2023/4/26 16:15,8082,0.46283555,-0.71492887,0.7716007,0.23759285,2.480503,9.48478,0.085126236,0.09147629,0.7865545,0.60474586,0.69122666,1.933999,9.739685,0.6922427,-0.06520794,0.10995251
2023/4/26 16:15,8121,0.30594426,-0.3283217,-0.7490921,0.24981979,2.695988,9.425477,0.09341059,0.10018687,0.7855983,0.60338414,0.5141578,2.319393,8.568997,0.49188477,0.081395395,0.017103724
2023/4/26 16:15,8161,-0.1970689,-1.0286856,-0.87340164,0.20497602,2.8464243,9.382231,0.097524956,0.108427025,0.78395534,0.60344553,-0.12861422,1.5964614,8.4276705,0.2817533,0.08750387,-0.09773556
2023/4/26 16:15,8201,-0.52218497,-2.1568468,-0.3308382,0.17531472,2.904386,9.365051,0.098693885,0.11234081,0.7821107,0.6049313,-0.36086756,0.63035923,9.020194,0.15347537,0.037414394,-0.043981
2023/4/26 16:15,8242,-0.36980337,-2.446415,0.018789291,0.14127474,2.9351377,9.356034,0.09850475,0.114959046,0.78191775,0.60471964,-0.14910276,0.4915755,9.326625,0.15225367,0.16080554,0.07452337
2023/4/26 16:15,8281,-0.28469443,-2.2571754,-0.32060528,0.091100365,2.9607804,9.348576,0.0972362,0.117772266,0.7828111,0.60322595,-0.16704893,0.69376904,8.908927,0.06429167,0.11071607,0.09407048
2023/4/26 16:15,8321,-0.092677794,-2.3443387,0.25774097,0.065868534,2.9436054,9.35421,0.09531232,0.11837089,0.7841251,0.60170734,-0.07238288,0.62318075,9.528968,0.041079476,0.08750387,0.08551861
2023/4/26 16:15,8362,-0.15341166,-1.908861,-0.07468033,0.050450735,2.9462504,9.353473,0.0945149,0.11907072,0.7849372,0.6006353,-0.089132644,1.0290633,9.150752,0.039857782,0.044744562,0.0891837
2023/4/26 16:15,8401,-0.027485013,-1.7102063,-0.09202099,0.04721258,2.9474957,9.353097,0.09413806,0.11922528,0.7855614,0.5998472,0.029312078,1.2073286,9.132806,0.08872557,0.027640838,0.052532863
2023/4/26 16:15,8442,-0.08129239,-1.4171662,-0.3444004,0.035066124,2.949843,9.35241,0.09402471,0.1199411,0.7858561,0.599336,-0.06999006,1.5053846,8.926873,-0.020005248,0.06062659,0.03420745
2023/4/26 16:15,8481,0.018812738,-1.1699078,-0.15541649,0.021582713,2.9150472,9.363356,0.09252948,0.119254544,0.78603715,0.59946835,0.054436713,1.79028,9.126823,-0.116519116,0.042301174,0.017103724
2023/4/26 16:15,8521,-0.1001798,-0.70594287,0.067362785,8.36E-04,2.8461056,9.384566,0.08947713,0.116927296,0.7863507,0.5999786,-0.08315059,2.0931215,9.466754,-0.20570281,0.07650862,0.015882028
2023/4/26 16:15,8562,-0.1856592,-0.75388896,0.4164238,-0.016859133,2.7440712,9.414891,0.085739,0.113848485,0.78730065,0.59987086,-0.23524438,1.8945173,9.724133,-0.09330692,-0.032222193,0
2023/4/26 16:15,8601,-0.35144916,-0.8080288,0.3105135,-0.024114123,2.651568,9.441345,0.081956334,0.10993457,0.7892717,0.598538,-0.37761733,1.8154047,9.618848,-0.12507097,0.004428643,0.029320668
2023/4/26 16:15,8641,-0.32369775,-0.7923709,0.35583687,-0.06485953,2.530917,9.47421,0.07700188,0.10672009,0.7912649,0.59714437,-0.42203408,1.6634604,9.722936,-0.13606623,0.055739813,0.057419643
2023/4/26 16:15,8682,-0.16027331,-0.8434943,0.05861473,-0.08304004,2.4469817,9.496092,0.07217612,0.103487104,0.79423624,0.594365,-0.14192429,1.676621,9.273982,0.020310672,0.03130592,0.12705623
2023/4/26 16:15,8721,0.12220078,-0.15941834,-0.9362459,-0.09618089,2.4284363,9.500729,0.070690125,0.10315406,0.79624516,0.5919086,-0.011365907,2.2942684,8.40135,-0.06520794,0.069178455,0.10384403
2023/4/26 16:15,8762,-0.16650128,-0.29205847,-0.6227379,-0.09102934,2.3888009,9.510821,0.069735244,0.101978175,0.79650277,0.591879,-0.34890345,1.945963,8.735298,-0.13362284,-0.06398625,0.02443389
2023/4/26 16:15,8801,-0.4307254,-0.2759726,-0.45849228,-0.10156825,2.3036084,9.531708,0.066975944,0.09852402,0.7970173,0.59209013,-0.5285147,2.0321047,8.900553,-0.32665056,0.039857782,0.01099525
2023/4/26 16:15,8841,-0.105341464,0.050759792,0.2791643,-0.16598491,2.1476283,9.567159,0.060667302,0.094451346,0.7971228,0.59329057,-0.19935204,2.0979073,9.677472,-0.35719293,0.15469708,-0.01343864
2023/4/26 16:15,8882,0.2434427,0.2751472,0.13850689,-0.2151118,2.0702503,9.583223,0.05489404,0.09162098,0.7968426,0.5946715,0.036490545,2.4332016,9.303893,-0.04566083,0.13026318,0.014660334
2023/4/26 16:15,8921,0.20682278,0.89327383,-0.66993904,-0.22334594,2.1396072,9.567788,0.05580316,0.09368019,0.79502994,0.59668875,-0.066400826,3.0604203,8.573783,0.103385895,-4.58E-04,0
2023/4/26 16:15,8961,-0.028326377,1.0668917,-0.7296362,-0.19959874,2.2321513,9.547149,0.060755156,0.09724183,0.79109573,0.6008497,-0.24601208,3.1980073,8.677871,-0.08597675,-0.0981937,-0.031764057
2023/4/26 16:15,9002,-0.15579559,0.70438623,0.20477581,-0.17251976,2.228726,9.548476,0.062818475,0.096614756,0.78748304,0.60546666,-0.341725,2.7946672,9.599556,-0.2313584,-0.09575031,-0.10140064
2023/4/26 16:15,9041,-0.46566448,0.65526104,0.83811665,-0.17793393,2.1957607,9.556012,0.062003493,0.09455084,0.784759,0.6094006,-0.6409774,2.8820052,10.180115,-0.07131642,-0.044439137,-0.028098974
2023/4/26 16:15,9082,0.090482935,0.835135,0.50247383,-0.1708864,2.236535,9.5466795,0.06346477,0.09565626,0.78254634,0.61191773,-0.066400826,3.0352955,9.807881,0.019088976,-0.043217443,-0.018325418
2023/4/26 16:15,9121,0.22967455,0.53651214,0.31476688,-0.14801127,2.309329,9.529716,0.066520356,0.097160816,0.7797839,0.6148755,0.044865426,2.874827,9.666704,0.18768282,-0.06154286,-0.05375456
2023/4/26 16:15,9161,0.1400408,0.8123896,-0.2514944,-0.102493204,2.4413161,9.497359,0.073184624,0.10085689,0.77612114,0.61814874,0.007776673,3.4003506,9.015408,0.2365506,-0.13117945,-0.07207998
2023/4/26 16:15,9202,0.21339586,1.0576217,-0.18050575,-0.050094992,2.570505,9.4636345,0.079965875,0.104074314,0.77133274,0.62275183,0.22208385,3.5392838,9.33141,-0.005344913,-0.116519116,-0.14293826
2023/4/26 16:15,9241,-0.024430558,0.83288,0.77491665,-0.021256775,2.6376712,9.445244,0.08480714,0.10520445,0.76574475,0.62878835,-0.09032906,3.4553854,10.123883,0.19501299,-0.12507097,-0.16981554
2023/4/26 16:15,9281,-0.34117627,0.8541,0.29862595,-0.001784992,2.7912772,9.401018,0.09070464,0.10903585,0.7604921,0.6336684,-0.39317068,3.6409788,9.646365,0.28419667,-0.106745556,-0.20890976
2023/4/26 16:15,9322,-0.42402497,0.8453014,0.45576763,-0.025452593,2.9262369,9.359855,0.09626114,0.1153553,0.75403625,0.6394187,-0.260369,3.6433716,9.883255,0.1473669,-0.078646585,-0.1808108
2023/4/26 16:15,9361,0.34533757,-0.049584627,1.286869,-0.05463971,2.9351335,9.356944,0.09741738,0.11686477,0.7497932,0.6439431,0.2484049,2.8497021,10.796715,-0.09941539,0.119267926,-0.28465483
2023/4/26 16:15,9401,0.21798673,-0.63531995,2.0424948,-0.10544848,2.8665955,9.377733,0.09324358,0.11544179,0.74790657,0.6470043,0.16585252,2.1351457,11.643026,0.05451812,0.03130592,-0.16615045
2023/4/26 16:15,9442,0.18574765,-1.3388575,1.1843481,-0.11360823,2.9651244,9.346952,0.09519222,0.11831299,0.7453791,0.64911515,-0.016151553,1.7184954,10.18146,0.6421532,-0.05787778,-0.06230642
2023/4/26 16:15,9481,0.27316785,-1.4709394,-0.9735317,-0.0766767,3.2274408,9.260029,0.10432307,0.1264289,0.7429344,0.6489845,0.21729821,1.8177974,8.340333,0.6531484,-0.16294351,-0.0684149
2023/4/26 16:15,9521,0.23537043,-1.7995872,-1.1073608,-0.020840812,3.3988767,9.198782,0.11472762,0.13250823,0.7391265,0.6503623,0.28549364,1.6227823,8.255387,0.29274854,-0.14339639,-0.0891837
2023/4/26 16:15,9562,0.8544739,-2.2167745,-0.31628704,-0.027510002,3.4214718,9.190384,0.11716156,0.13357665,0.73694015,0.65218836,0.8804092,1.261167,9.132806,-0.05787778,0.13759334,-0.13927318
2023/4/26 16:15,9601,1.0097765,-1.841284,-0.08559418,-0.087441795,3.3933024,9.200448,0.11384219,0.13401952,0.73505616,0.6548062,0.75000036,1.7256738,9.180662,0.04963134,0.10460759,-0.24922568
2023/4/26 16:15,9642,0.47262836,-1.6504018,-0.21510887,-0.1416127,3.4075327,9.194512,0.11278123,0.1357003,0.7318914,0.65817994,0.34890345,1.7567805,9.082557,0.081395395,0.016645588,-0.24678229
2023/4/26 16:15,9681,0.079883814,-1.9558115,-0.11301613,-0.17058675,3.4215455,9.188815,0.11273839,0.13690946,0.7280915,0.6621395,-0.13100705,1.4324034,9.099306,0.10827268,-0.032222193,-0.23090026
2023/4/26 16:15,9721,0.00830774,-2.252413,-0.21563148,-0.18359557,3.4362679,9.183068,0.113389164,0.13747557,0.72491604,0.66538715,-0.18978074,1.1750255,9.078967,0.0801737,-0.054212693,-0.18691926
2023/4/26 16:15,9762,-0.21438023,-2.3161666,-0.3669796,-0.18065377,3.4344735,9.183798,0.11387518,0.13731976,0.72282165,0.66761106,-0.34052858,1.1522937,8.867053,-0.00167983,-0.072538115,-0.076966755
2023/4/26 16:15,9801,0.069782555,-2.0671897,-0.31895733,-0.17030738,3.393315,9.199282,0.11321605,0.13548507,0.72231925,0.66864103,-0.054436713,1.4312071,9.044122,-0.0749815,-0.02611372,0.023212196
2023/4/26 16:15,9841,-0.005187109,-1.7842145,-0.1868372,-0.14036392,3.3510592,9.215264,0.112516806,0.13308291,0.722731,0.66879654,-0.19217357,1.5797116,9.088538,-0.100637086,-0.116519116,0.036650836
2023/4/26 16:15,9882,0.081068456,-1.8057343,0.119669914,-0.09417033,3.2772658,9.24235,0.11178748,0.12843466,0.72339946,0.6691049,0.1538884,1.4934205,9.532557,-0.24113196,-0.07009472,0.10140064
2023/4/26 16:15,9922,0.6482203,-1.502245,0.5895014,-0.038697153,3.0586948,9.317364,0.10611979,0.120179,0.72866744,0.66583735,0.6373881,1.641925,9.930064,-0.18004723,-0.01267508,0.1123959
2023/4/26 16:15,9961,0.66551286,-0.7354591,-0.18622684,0.03815798,2.9483314,9.352876,0.10338271,0.112202376,0.73313266,0.6627512,0.5907281,2.3170002,9.058628,-0.08719844,-0.094528615,0.04031592
2023/4/26 16:15,10001,0.2001207,-0.5330906,-0.52050495,0.10747722,2.8723056,9.375964,0.10353517,0.10735722,0.73407984,0.6624815,0.23763719,2.3385355,8.877821,-0.14950487,-0.078646585,0.019547112
2023/4/26 16:15,10041,-0.23235035,-0.42845106,-0.35604668,0.13462672,2.7892063,9.40067,0.101942055,0.10313031,0.7347184,0.6626921,-0.07836494,2.3756242,9.009426,-0.19959435,-0.08719844,0.076966755
2023/4/26 16:15,10082,-0.22566327,-0.3763914,0.14472389,0.14323267,2.6609454,9.437651,0.09837798,0.09796228,0.7361497,0.6624264,-0.091525465,2.2655544,9.5840025,-0.2753394,0.05207473,0.12461284
2023/4/26 16:15,10121,0.09228334,-0.21264577,0.2834034,0.12967223,2.5635395,9.464768,0.09341842,0.09461337,0.7393649,0.6600461,0.24720849,2.4128625,9.6631155,-0.12140589,0.065513365,0.2247918
2023/4/26 16:15,10162,0.1437851,0.00323987,-0.048903465,0.14280231,2.5212066,9.475944,0.09151715,0.09242527,0.7425325,0.65705985,0.31540394,2.507379,9.380612,-0.08597675,0.07773031,0.22723518
2023/4/26 16:15,10201,0.09473044,0.054320335,-0.43999767,0.133963,2.5005996,9.481531,0.090273544,0.092002764,0.74488467,0.65462434,0.19935204,2.548057,8.951998,-0.06520794,0.11071607,0.2211267
2023/4/26 16:15,10242,0.1036274,0.08038068,-0.38762283,0.12665701,2.4774435,9.487709,0.088789776,0.09180575,0.74702543,0.65241176,0.26515466,2.4930222,9.138788,-0.09330692,0.069178455,0.23945212
2023/4/26 16:15,10281,0.3493796,0.26685023,-0.037638664,0.14806554,2.4977307,9.482078,0.08898958,0.091614015,0.74927247,0.6498296,0.55483574,2.8162026,9.307482,0.1913479,0.055739813,0.29198498
2023/4/26 16:15,10322,0.42754713,0.76399565,-0.7008343,0.17940289,2.623198,9.447595,0.09436042,0.095637776,0.75064915,0.6468968,0.5620142,3.4087255,8.560622,0.23166382,0.061848287,0.24067383
2023/4/26 16:15,10361,0.18964598,0.87014127,-0.93585396,0.2114281,2.7555876,9.409167,0.10027989,0.09996814,0.74994755,0.64616483,0.40393838,3.6170506,8.370243,0.09972081,0.045966256,0.20646638
2023/4/26 16:15,10402,0.044321,0.81342936,-0.35329914,0.20703892,2.8485422,9.381543,0.1035697,0.10337172,0.749097,0.646097,0.19695921,3.6278183,8.873035,0.037414394,0.10460759,0.1551552
2023/4/26 16:15,10441,-0.42274237,0.69296765,-0.1115036,0.17628288,2.9176095,9.360923,0.105105676,0.10753331,0.7483413,0.6460454,-0.25438696,3.5536408,9.108877,0.02275406,0.050853033,0.16370706
2023/4/26 16:15,10481,-0.30243176,0.6562028,0.48326683,0.14721186,2.9399703,9.354426,0.10506872,0.109874286,0.7484445,0.6455378,-0.012562319,3.5344982,9.81506,-0.14828317,0.08261709,0.27976805
2023/4/26 16:15,10521,0.2872257,0.6682997,1.1515884,0.12678483,2.9052703,9.365561,0.10251118,0.109618805,0.7515613,0.6423634,0.35727832,3.585944,10.6075325,-0.037108973,0.19867808,0.32985753
2023/4/26 16:15,10562,-0.052197248,1.0008063,0.5286484,0.1366959,2.966023,9.346358,0.103592604,0.111837886,0.7545314,0.6383128,0.019740786,4.0634613,9.691829,0.33184278,0.033749312,0.38727716
2023/4/26 16:15,10601,-0.41422594,1.1716797,-0.34977913,0.16800356,3.0955818,9.303738,0.10874697,0.11685149,0.75772077,0.63275516,-0.4351946,4.252644,8.948409,0.1473669,0.045966256,0.2932067
2023/4/26 16:15,10641,-1.1192157,0.1677196,0.53215504,0.15710622,3.0787444,9.309514,0.108429186,0.117770456,0.7603659,0.62945765,-0.99302137,3.0412776,10.225728,-0.1861557,0.12904148,0.2895416
2023/4/26 16:15,10682,0.05933945,-0.4962077,1.6400547,0.14544268,3.041303,9.322001,0.10532772,0.116688825,0.7642848,0.62542665,0.341725,2.5815566,10.93191,0.08383878,0.14981028,0.3567348
2023/4/26 16:15,10721,0.5688925,-0.07056761,1.0206299,0.1451322,3.1039271,9.301342,0.10592971,0.11970724,0.7687791,0.6192154,0.71769726,3.0795627,10.255638,0.33184278,0.06795676,0.32252735
2023/4/26 16:15,10761,-0.07781555,-0.51618886,-0.08656216,0.18473533,3.2454062,9.252221,0.11071447,0.12430433,0.7708707,0.614857,-0.066400826,2.631806,9.093325,0.34039465,-0.04688253,0.16126367
2023/4/26 16:15,10801,-0.85985976,-1.4016672,-0.4296713,0.198389,3.3195946,9.22558,0.11464774,0.12803507,0.7721167,0.61179954,-0.76435727,1.7340486,8.785697,0.12904148,0.11682454,0.2247918
2023/4/26 16:15,10842,-1.1609768,-1.808735,-0.39398003,0.18014577,3.3422499,9.217772,0.11394148,0.13035668,0.7754054,0.6072652,-0.943819,1.5496517,8.782107,0.10827268,0.07040015,0.40926766
2023/4/26 16:15,10881,-0.9166801,-1.7930164,-0.5623388,0.20299056,3.3539221,9.213056,0.11413844,0.13133484,0.78072864,0.60015535,-0.72248286,1.5424733,8.633603,0.020310672,0.12781979,0.46180052
2023/4/26 16:15,10921,-0.78809005,-1.9142284,-0.34380054,0.19493608,3.3140557,9.227645,0.11169934,0.131432,0.7868861,0.5925024,-0.5344968,1.3881363,8.907731,-0.08719844,0.18523943,0.5436541
2023/4/26 16:15,10962,-0.64847285,-1.9156213,-0.08468151,0.20275266,3.2642236,9.245221,0.10841372,0.13031283,0.79477197,0.5827543,-0.39556348,1.3271192,9.130413,-0.08231167,0.13881505,0.59252185
2023/4/26 16:15,11001,-0.42711347,-1.7536514,-0.0318079,0.22285706,3.1883447,9.271201,0.1057227,0.12844792,0.80212384,0.57351655,-0.16106687,1.4527425,9.226126,-0.19837265,0.15836215,0.6499415
2023/4/26 16:15,11041,-0.17972131,-1.6581659,0.48404694,0.23774604,3.103997,9.299412,0.10198529,0.12549485,0.8101386,0.563494,0.011365907,1.4431711,9.712168,-0.11285403,0.14003673,0.6218425
2023/4/26 16:15,11082,-0.25985605,-1.396359,0.17013168,0.27502987,3.057501,9.313777,0.099926285,0.12330954,0.81854004,0.5520885,0.029312078,1.7854943,9.388988,-0.031000499,0.07406523,0.69880927
2023/4/26 16:15,11122,-0.25006723,-0.8138485,-0.13940144,0.3344916,3.024717,9.322531,0.09976984,0.12186928,0.82587224,0.5414138,-0.019740786,2.194966,9.077771,-0.07742489,0.055739813,0.6230642
2023/4/26 16:15,11162,-1.0896139,-1.2250206,0.024655342,0.38985762,2.9689279,9.338302,0.09901613,0.1190473,0.8336045,0.5302142,-0.82178503,1.5952649,9.37822,-0.07986828,-0.037108973,0.715913
2023/4/26 16:15,11201,-1.3396622,-1.5174706,0.045365334,0.44527236,2.888127,9.361135,0.09772479,0.11615358,0.84322006,0.51569194,-0.9366405,1.3606188,9.2895355,0.07406523,-0.01267508,0.8906153
2023/4/26 16:15,11242,-1.5426574,-1.0938559,-0.46239662,0.4329649,2.813069,9.384539,0.09206518,0.11495651,0.8575355,0.49289134,-1.1114662,1.7460128,8.746066,-0.038330667,0.15469708,1.094791
2023/4/26 16:15,11281,-1.3583609,-0.80157185,-0.12430477,0.37252158,2.6979897,9.420853,0.08365163,0.11382556,0.8713381,0.46991065,-0.9761221,1.7711374,9.23809,-0.2521272,0.26587126,1.2132953
2023/4/26 16:15,11321,-0.9447676,-0.72633564,0.5190811,0.3127581,2.5293734,9.46968,0.07291979,0.10996228,0.8877225,0.44106668,-0.5500501,1.749602,9.821041,-0.14583978,0.3049655,1.3256912
2023/4/26 16:15,11362,-0.5832164,-0.4053645,0.18925953,0.26123655,2.4300363,9.497213,0.06477814,0.10826761,0.9018134,0.41329712,-0.2268695,2.0249262,9.466754,-0.10185878,0.41980478,1.4356438
2023/4/26 16:15,11401,-0.3134582,-0.16289258,-0.17986965,0.21600631,2.3711417,9.513223,0.057450835,0.10798155,0.914876,0.3847614,-0.10109676,2.0811574,9.104092,-0.12873606,0.42591324,1.4527475
2023/4/26 16:15,11441,-0.76869553,-0.54428744,0.073539734,0.14472358,2.2555442,9.542639,0.048591852,0.1061989,0.92891586,0.3513914,-0.68883383,1.5833008,9.536146,-0.184934,0.4124746,1.5614783
2023/4/26 16:15,11482,-0.74206024,-0.59656215,0.4024992,0.063835844,2.1297672,9.572378,0.03920559,0.103501305,0.942149,0.31639484,-0.6768697,1.518545,9.816256,-0.14583978,0.4601207,1.7361807
2023/4/26 16:15,11521,-0.5553575,-0.40531254,0.23692417,-0.028659295,2.0425193,9.591542,0.028245928,0.10135993,0.9559368,0.2740678,-0.60388863,1.5940685,9.666704,-0.12629268,0.5932854,1.8339162
2023/4/26 16:15,11562,-0.37134558,-0.37324834,0.36849308,-0.13356812,1.9832085,9.603096,0.017911274,0.10051702,0.96671456,0.23460272,-0.408724,1.6239789,9.836595,-0.043217443,0.5322007,1.9230999
2023/4/26 16:15,11601,0.18982764,-0.2993269,0.25085163,-0.20439371,1.9540641,9.607822,0.009309912,0.100337654,0.9765525,0.19023903,0.050847482,1.6036398,9.763614,-0.02367033,0.62749285,1.9340951
2023/4/26 16:15,11642,0.4629925,-0.2802136,-0.04548645,-0.2589776,1.9688241,9.603491,0.002423293,0.10118244,0.9832244,0.15174338,0.25199413,1.6574783,9.367452,0.119267926,0.5004366,1.8791189
2023/4/26 16:15,11681,0.38246876,-0.18378627,-0.4723072,-0.25883907,2.0021458,9.596603,-0.001178198,0.10325332,0.9879884,0.11496197,0.07956135,1.7603697,9.027372,-0.011453386,0.49677154,1.7850484
2023/4/26 16:15,11721,0.33549598,-0.2027371,-0.07427883,-0.2919328,2.0028605,9.595505,-0.0070164,0.10346934,0.99179083,0.07480528,0.04366901,1.7831016,9.380612,-0.005344913,0.486998,1.7215203
2023/4/26 16:15,11762,0.4279772,-0.22654831,0.13360214,-0.2916762,2.0036018,9.595358,-0.011139381,0.10335669,0.9937823,0.03987647,0.15269199,1.7220845,9.591181,-0.040774055,0.34283802,1.638445
2023/4/26 16:15,11801,0.6652287,-0.28964508,0.47203827,-0.25674954,1.9814214,9.600961,-0.012940025,0.10175178,0.99471766,0.003984925,0.497408,1.6897814,9.9372425,-0.016340164,0.3892624,1.5333793
2023/4/26 16:15,11841,0.92205954,-0.029759765,0.13773441,-0.22530696,1.9919682,9.599566,0.014680838,-0.101316154,-0.9944319,0.0249931,0.7165008,1.9806589,9.556485,0.08506048,0.31718245,1.3770025
2023/4/26 16:15,11882,1.0805914,0.35329628,-0.50984097,-0.15269849,2.052147,9.588313,0.013785422,-0.10422086,-0.99310386,0.051891394,0.97372925,2.4523442,8.9029455,0.069178455,0.24265908,1.1570975
2023/4/26 16:15,11921,1.0702676,0.32801318,-0.33908653,-0.08567901,2.112224,9.576093,0.012628816,-0.10729923,-0.9915093,0.07236492,0.9821041,2.4248266,9.048907,0.097277425,0.2365506,0.9384141
2023/4/26 16:15,11961,0.84851176,0.4474864,-0.68526936,-0.01446048,2.1896534,9.559058,0.011405077,-0.11133271,-0.9895426,0.09099677,0.78948194,2.6593232,8.644371,0.07040015,0.16080554,0.79654485
2023/4/26 16:15,12003,0.95128137,0.86459804,-0.7239742,0.06048144,2.2412853,9.546905,0.009739869,-0.11449522,-0.98769534,0.10608464,1.1042876,3.0640094,8.723334,-0.15316994,0.09605573,0.6267293
2023/4/26 16:15,12041,0.667802,0.6494627,0.005962372,0.13578002,2.221631,9.550722,0.007068942,-0.11442676,-0.9865121,0.11683464,0.6876374,2.8185954,9.380612,-0.19226417,0.1241547,0.45080528
2023/4/26 16:15,12082,0.44026724,0.71221375,-0.062455177,0.19140643,2.226632,9.548605,0.005425268,-0.11426047,-0.98520476,0.12761915,0.6876374,2.9886355,9.11486,0.005650337,-0.06520794,0.38361207
2023/4/26 16:15,12121,0.48060963,1.0603223,-0.7543297,0.28048256,2.2951744,9.530157,0.002470057,-0.11789153,-0.98368734,0.13584793,0.68883383,3.3010483,8.459974,-0.07742489,0.012980504,0.21135315
2023/4/26 16:15,12161,0.060226053,1.0372224,-0.6151142,0.29658556,2.301999,9.528023,0.001837098,-0.11930342,-0.9827138,0.14155167,0.19456638,3.3596725,8.871839,-0.26800925,-0.007788302,0.041537613
2023/4/26 16:15,12202,-0.027926028,1.6969306,0.08817291,0.30254784,2.2827754,9.532459,0.002025193,-0.118479975,-0.98206806,0.14663136,0.2687439,3.9246778,9.365059,-0.14828317,0.001985254,0.025655584
2023/4/26 16:15,12241,-0.636047,1.6496942,0.72665787,0.30010477,2.2472737,9.540969,0.002158558,-0.11648334,-0.9818966,0.14935221,-0.39077786,3.780959,10.1418295,-0.06154286,-0.05054761,-0.0452027
2023/4/26 16:15,12282,-0.5769393,1.4521575,1.0751953,0.30722922,2.277486,9.533574,0.002307727,-0.11746404,-0.98132384,0.1523166,-0.2268695,3.7570307,10.310673,0.2133384,-0.040774055,-0.009773556
2023/4/26 16:15,12321,-0.55264515,1.5898354,0.8611984,0.32484123,2.393902,9.504426,0.002797876,-0.12280101,-0.98029035,0.15473509,-0.24601208,3.8540895,10.129865,0.2170035,-0.11529742,-0.09407048
2023/4/26 16:15,12362,-0.56000674,0.6712637,1.1155262,0.34789318,2.4696944,9.484196,0.002324999,-0.12784381,-0.97952,0.15553464,-0.14072788,2.8891838,10.393225,0.09849912,-0.103080474,-0.12583454
2023/4/26 16:15,12401,-0.28903875,-0.11372161,1.319582,0.35190427,2.482193,9.480784,0.002055785,-0.12891488,-0.9793844,0.15550856,0.02213361,2.2188942,10.564462,0.010537115,0.005650337,-0.13927318
2023/4/26 16:15,12442,-0.08271395,-0.34185553,0.70936966,0.3351843,2.50834,9.474506,0.003298863,-0.12975931,-0.97907966,0.15669908,0.35967115,2.1722343,9.817452,0.1937913,0.001985254,0.041537613
2023/4/26 16:15,12481,0.19682148,-0.14075613,0.1306305,0.3662055,2.62537,9.441595,0.003542902,-0.13450548,-0.97793216,0.15982635,0.5452645,2.4690938,9.275179,0.3929275,-0.12873606,0.02687728
2023/4/26 16:15,12522,-0.46419996,-0.29089785,-0.38316345,0.3928799,2.733806,9.409694,0.003085605,-0.1417509,-0.9765001,0.16231066,-0.16585252,2.2954648,8.838339,0.1925696,-0.006566608,0.05131117
2023/4/26 16:15,12561,-0.61765647,-0.9224893,0.09455204,0.38289678,2.7712731,9.399138,0.004362756,-0.14392555,-0.9755247,0.16618647,-0.24122643,1.702942,9.398559,0.06429167,0.03863609,0.10384403
2023/4/26 16:15,12602,-0.24796773,-1.3419375,0.4570942,0.3873516,2.807631,9.388161,0.005438956,-0.14557123,-0.97434855,0.17153531,0.2795116,1.4084753,9.429666,0.21944688,0.015423893,0.18203248
2023/4/26 16:15,12641,0.22315091,-1.3590581,-0.08161163,0.40331942,2.8708198,9.368357,0.006093472,-0.1489211,-0.97287554,0.17691417,0.6373881,1.4742779,9.063414,0.22799873,-0.033443887,0.1551552
2023/4/26 16:15,12682,0.7792987,-1.1420166,-0.51894,0.45615143,2.9343743,9.346217,0.005231162,-0.15257682,-0.97150886,0.18128279,1.2707384,1.7639589,8.607282,0.07406523,-0.106745556,0.012216945
2023/4/26 16:15,12722,0.47392243,-1.3334844,0.14032173,0.48352057,2.9067004,9.353485,0.003198812,-0.15232036,-0.97157437,0.18119481,0.8648558,1.3965111,9.502646,-0.12995775,-0.13362284,-0.14538164
2023/4/26 16:15,12762,0.013008535,-1.8651724,0.51560974,0.5257974,2.8721256,9.361881,5.49E-04,-0.15054975,-0.9720927,0.17991737,0.5021936,0.9415757,9.569646,0.0801737,-0.12384928,-0.120947756
2023/4/26 16:15,12801,-0.32094902,-1.5672603,-0.25995636,0.54643595,2.8953807,9.353532,-5.53E-04,-0.15187149,-0.9720144,0.17922813,0.12622139,1.4850456,8.688638,0.05207473,-0.08597675,-0.08185353
2023/4/26 16:15,12842,0.046310425,-0.76859355,0.04909134,0.56658834,2.8331022,9.371387,-0.001631983,-0.15026954,-0.97211385,0.18003082,0.67806613,1.9878374,9.277572,-0.29610822,-0.06642964,-0.031764057
2023/4/26 16:15,12881,0.55349255,-0.8700055,0.95263004,0.60432684,2.696364,9.409294,-0.004909792,-0.14306815,-0.97326607,0.17961212,1.1114662,1.7484056,10.264012,-0.15194826,-0.07986828,-0.087962
2023/4/26 16:15,12922,-0.044602215,-0.71943283,0.15481663,0.65430176,2.6380541,9.422469,-0.008595173,-0.13968247,-0.97421235,0.17698918,0.4423731,1.9280169,9.112467,0.10460759,-0.15927842,-0.09529217
2023/4/26 16:15,12962,-0.4671845,-0.6109669,-0.5628462,0.68053645,2.6209075,9.425396,-0.010191889,-0.13928497,-0.9741966,0.17730434,0.2388336,1.939981,8.633603,-0.048104223,-0.109188944,-0.007330167
2023/4/26 16:15,13001,0.05176848,-0.51655126,-0.3779335,0.69280547,2.5454733,9.445155,-0.011116405,-0.13588734,-0.97421914,0.17974462,0.8337491,1.9435701,9.0178,-0.19104248,0.001985254,0.01099525
2023/4/26 16:15,13041,-0.2775611,-0.35552764,0.066716194,0.700881,2.461801,9.466715,-0.012100137,-0.13175264,-0.9745322,0.1810576,0.3524927,2.018944,9.22134,-0.078646585,-0.0749815,0.029320668
2023/4/26 16:15,13082,-0.13913459,-0.26977682,-0.088186264,0.7143551,2.4048855,9.480328,-0.012846953,-0.12870471,-0.97424847,0.18468894,0.65054864,2.1279671,9.072986,-0.12995775,-0.03466558,0.14293826
2023/4/26 16:15,13121,0.47201234,0.118914366,-0.18095875,0.7496874,2.3332942,9.495477,-0.014379292,-0.12589863,-0.9738099,0.18877794,1.180858,2.3481069,9.124431,-0.23502348,0.028862532,0.06352811
2023/4/26 16:15,13162,0.09184015,0.03801942,0.19592285,0.7623171,2.2437947,9.516021,-0.016024642,-0.12123912,-0.973972,0.19084762,0.8911769,2.1686451,9.418898,-0.26067907,-0.018783553,0.11972606
2023/4/26 16:15,13201,0.22811115,-0.15701771,0.4125719,0.7839182,2.1422217,9.537649,-0.017780295,-0.11633258,-0.9738308,0.19443277,0.9545867,1.8921245,9.690633,-0.17027368,0.07650862,0.11972606
2023/4/26 16:15,13241,-0.023669183,-0.003993511,-0.026921272,0.76981,2.0969496,9.548853,-0.017276011,-0.11330808,-0.97331035,0.19882092,0.78230345,2.1267707,9.099306,0.045966256,0.08261709,0.1783674
2023/4/26 16:15,13282,0.35317087,0.81846356,-0.5293236,0.7521215,2.1300676,9.54293,-0.015477758,-0.11472409,-0.9721308,0.20386404,1.1976078,3.0364919,8.938838,-0.0762032,0.1485886,0.1331647
2023/4/26 16:15,13322,0.66549504,0.98025703,0.14005661,0.74502003,2.1661928,9.535353,-0.014195524,-0.11675116,-0.97118855,0.20726919,1.3963616,3.1118658,9.415308,0.02519745,0.11560284,-0.002443389
2023/4/26 16:15,13361,0.14088297,0.39180207,-0.083291054,0.7281127,2.2560554,9.5157995,-0.012604148,-0.1206696,-0.9704966,0.20836593,0.7332506,2.4619155,9.095717,0.18890451,0.13148487,-0.05131117
2023/4/26 16:15,13402,-0.92115843,0.19205523,-0.9750376,0.6369498,2.3801942,9.492068,-0.00776358,-0.12534614,-0.96962667,0.20988604,-0.40992042,2.5061827,8.060223,0.18279605,0.09605573,-0.0904054
2023/4/26 16:15,13441,-0.54229164,0.3622012,-0.6377535,0.5255143,2.3908238,9.49622,-3.94E-04,-0.1264164,-0.96853405,0.21438402,0.2161018,2.7838995,8.984302,-0.32176378,0.2145601,0.043981
2023/4/26 16:15,13481,0.6935499,0.77837014,1.147296,0.47153094,2.3172436,9.517269,0.002703704,-0.12163146,-0.9682049,0.21858124,1.2418749,3.022135,10.360922,-0.054212693,0.08750387,0.1111742
2023/4/26 16:15,13522,0.29229853,0.58846164,0.34158802,0.4927177,2.3699734,9.5032015,0.002312502,-0.123848744,-0.96751994,0.22036639,0.47228336,2.8520951,9.2691965,0.2145601,-0.01511847,-0.0219905
2023/4/26 16:15,13561,-0.49519205,0.5954418,-0.66808796,0.4809668,2.4532301,9.482654,0.003662203,-0.12776563,-0.96662027,0.22205353,-0.016151553,3.034099,8.518747,0.13637166,0.07650862,0.07330167
2023/4/26 16:15,13601,-0.07859266,0.97711396,-0.26163864,0.45832467,2.4875324,9.474835,0.006104172,-0.12972338,-0.9654747,0.22581655,0.5057829,3.4398322,8.977123,0.07284354,0.032527618,0.10995251
2023/4/26 16:15,13642,0.15682691,1.2000647,-0.3641081,0.46266967,2.5290425,9.463628,0.006791906,-0.1318287,-0.9644977,0.22873415,0.59551376,3.6888351,8.800054,0.056961507,0.06062659,0.05375456
2023/4/26 16:15,13681,0.12974045,1.427383,-0.2341404,0.41390872,2.5419528,9.462428,0.009145834,-0.1322441,-0.9637007,0.23175158,0.51056856,3.9103208,9.096913,-0.013896775,0.16080554,0.007330167
2023/4/26 16:15,13721,-0.13934529,1.2402251,-0.0562582,0.37103343,2.5931747,9.450299,0.012505948,-0.1336554,-0.9630818,0.23335248,0.12023934,3.6804602,9.015408,0.24143738,0.09361234,-0.015882028
2023/4/26 16:15,13761,-0.47383955,1.1933467,-0.32886028,0.3229342,2.702262,9.421458,0.016096065,-0.13815725,-0.96187824,0.23546498,-0.09990034,3.881607,8.857482,0.19501299,0.13759334,0.083075225
2023/4/26 16:15,13802,0.1226019,1.2838569,0.23770142,0.28375238,2.7831385,9.399149,0.020218605,-0.14210339,-0.96015733,0.23978263,0.48185465,4.0179977,9.439237,0.26098448,0.12904148,0.13560809
2023/4/26 16:15,13841,0.12788054,1.6349347,0.056405067,0.2405975,2.9508364,9.349068,0.024464209,-0.14842463,-0.95793724,0.24439275,0.20294127,4.559075,9.003444,0.4613424,0.15347537,0.05986303
2023/4/26 16:15,13881,-1.1596948,1.0496781,-0.42779922,0.19831768,3.032332,9.323949,0.02912275,-0.1545452,-0.9561455,0.24708973,-1.0049855,3.5225341,9.138788,-0.34131092,0.07773031,0.020768806
2023/4/26 16:15,13921,0.072547525,-0.8400481,2.7046719,0.14904572,2.8139331,9.393081,0.02951116,-0.14517462,-0.95653915,0.25116974,0.341725,1.8333508,11.99851,-0.53800374,0.1913479,0.12949961
2023/4/26 16:15,13961,1.0516458,0.089647055,2.9231405,0.098507665,2.720418,9.421252,0.030746823,-0.13681266,-0.9566671,0.25519595,1.2346965,3.0173492,11.965011,0.11071607,0.12659809,0.05375456
2023/4/26 16:15,14001,0.8376165,0.6755202,1.1855001,0.0978792,2.8487122,9.383265,0.032893054,-0.141799,-0.95572215,0.2557464,0.8696415,3.4206896,10.202995,0.6336013,-0.1421747,-0.19058435
2023/4/26 16:15,14041,-0.3574818,-0.6097839,-0.58239746,0.15827928,3.127511,9.293223,0.03314073,-0.15513006,-0.95477486,0.2514783,-0.40274197,2.2894826,8.370243,0.62016267,-0.27289602,-0.37261683
2023/4/26 16:15,14081,-0.8673532,-1.6657871,-0.99503994,0.15475571,3.26712,9.245127,0.033702396,-0.16536106,-0.95483744,0.24455133,-0.82417786,1.4407784,8.065009,0.17424418,0.07040015,-0.30786702
2023/4/26 16:15,14122,-0.98937446,-1.9721932,-0.4179983,0.09797599,3.2807362,9.24108,0.036464192,-0.16601822,-0.95547324,0.2412037,-0.8086245,1.1989537,8.673085,0.012980504,-0.06398625,-0.14782503
2023/4/26 16:15,14161,-0.35757405,-1.2799137,-0.21674061,0.10566417,3.271613,9.244228,0.035999794,-0.1655309,-0.9558266,0.24020621,-0.06999006,2.162663,8.844321,-0.013896775,-0.00167983,0.0219905
2023/4/26 16:15,14201,-0.19324316,-0.72886443,0.015283585,0.08942736,3.228496,9.259546,0.036496967,-0.16387796,-0.95551264,0.24250261,-0.19695921,2.3612673,9.100503,-0.19837265,0.019088976,-0.131943
2023/4/26 16:15,14241,-0.6424664,-1.5827281,0.67235565,0.06953464,3.1424868,9.289259,0.036238264,-0.15883687,-0.956678,0.24129838,-0.49262238,1.3570296,9.819845,-0.13973132,0.02275406,-0.052532863
2023/4/26 16:15,14282,-0.4140988,-1.6100361,0.13497257,0.0330259,3.1203227,9.296928,0.03748509,-0.15667567,-0.9567471,0.24224478,-0.36565322,1.4850456,9.117252,0.069178455,0.07895201,0.04031592
2023/4/26 16:15,14322,-0.3289184,-1.490721,-0.41077423,0.032852743,3.1135538,9.299198,0.038311318,-0.15640299,-0.9562139,0.24438775,-0.19695921,1.5173486,8.760423,-0.07009472,-0.033443887,0.06230642
2023/4/26 16:15,14361,-0.10795426,-1.4632955,-0.02590847,0.04136301,3.0639005,9.315643,0.03745939,-0.15404956,-0.9561172,0.24638458,-0.044865426,1.5844972,9.061021,-0.09575031,0.0361927,0.05131117
2023/4/26 16:15,14401,0.10936108,-0.7691264,-0.13735294,0.04071586,2.9991126,9.336703,0.037188612,-0.151283,-0.95609915,0.2482033,0.17781663,2.2476082,8.948409,-0.228915,-0.009009997,0.029320668
2023/4/26 16:15,14441,0.27095908,-0.20235634,0.49055386,0.05177511,2.8927832,9.370139,0.03535696,-0.14569618,-0.95668,0.2495713,0.341725,2.6306095,9.68465,-0.30221668,-0.048104223,-0.03420745
2023/4/26 16:15,14481,-0.11100859,-0.40567422,0.7020664,0.055538673,2.7803361,9.404097,0.033478178,-0.14046377,-0.9575866,0.24935322,-0.2591726,2.235644,9.9061365,-0.20081604,-0.016340164,-0.13805148
2023/4/26 16:15,14522,-0.78315836,-0.7008698,0.5674763,0.037642524,2.7002428,9.427494,0.033128165,-0.13546342,-0.95844805,0.24885634,-0.65294147,1.8741783,9.725328,-0.011453386,-0.13973132,0.003665084
2023/4/26 16:15,14561,-0.18624896,-0.674423,-0.09235859,0.041121878,2.651122,9.441411,0.032556262,-0.13291055,-0.9584009,0.25048468,-0.11545369,1.939981,9.072986,0.044744562,-0.01511847,0.06963659
2023/4/26 16:15,14601,-0.27327305,-0.51292324,-0.7294121,0.040942207,2.6278543,9.447915,0.03244231,-0.13172108,-0.95813733,0.25213066,-0.22208385,2.0440688,8.440831,-0.05787778,-0.032222193,0.05619795
2023/4/26 16:15,14642,-0.2454037,-0.29736686,-0.19364166,0.03636219,2.5332038,9.47375,0.031965926,-0.12795565,-0.95798033,0.2547139,-0.21251257,2.203341,9.324232,-0.30588177,0.005650337,0.08063184
2023/4/26 16:15,14681,-0.058410823,-0.014001608,0.64880466,0.018230096,2.4098628,9.505926,0.031359155,-0.121272884,-0.9580925,0.25762042,-0.018544376,2.3493032,9.8988085,-0.24846213,0.075286925,0.10262234
2023/4/26 16:15,14721,-0.074833475,0.18761778,0.5146313,-5.96E-04,2.3364427,9.524255,0.031567402,-0.11609137,-0.9578683,0.26079616,-0.07238288,2.4224339,9.8270235,-0.11163234,0.028862532,0.09529217
2023/4/26 16:15,14761,0.052736625,0.068526745,-0.009643555,0.017062731,2.3266087,9.526646,0.031340387,-0.11515644,-0.95709985,0.264039,0.13220344,2.319393,9.18784,0.012980504,-0.056656085,0.12827793
2023/4/26 16:15,14802,0.15668647,0.019188643,-0.3501711,0.045487706,2.3250163,9.526941,0.029967148,-0.11564021,-0.9562605,0.26701152,0.21729821,2.2763221,8.932856,-0.028557109,0.021532366,0.13805148
2023/4/26 16:15,14841,0.14641249,0.2606113,-0.49689388,0.07766768,2.3610697,9.517862,0.02945438,-0.11666753,-0.9552678,0.2701566,0.22567308,2.635395,8.7113695,0.18157434,-0.08842014,0.14049487
2023/4/26 16:15,14881,0.1386876,0.73564863,-1.1708841,0.14349586,2.4649522,9.490722,0.028164787,-0.12320538,-0.9534153,0.2739096,0.30343983,3.1465619,8.003992,-0.01267508,-0.12384928,0.043981
2023/4/26 16:15,14921,-0.037345335,0.5593469,-0.116111755,0.1629939,2.4540884,9.493222,0.027077487,-0.12392497,-0.9527823,0.27589002,0.084346995,2.9178977,9.201001,-0.30343837,0.012980504,-0.030542362
2023/4/26 16:15,14961,0.274458,0.69506145,0.6350088,0.1930618,2.3999412,9.506493,0.025766456,-0.12110925,-0.9528117,0.27716142,0.49860442,3.0999017,9.809077,-0.10430217,-0.15439165,-0.025655584
2023/4/26 16:15,15002,0.5009831,1.0107794,0.41763878,0.27480718,2.4189944,9.499649,0.021604612,-0.123024054,-0.9526233,0.27732137,0.795464,3.364458,9.720543,-0.096972,-0.109188944,-0.057419643
2023/4/26 16:15,15041,0.07538462,0.92509913,0.24043941,0.33512533,2.483014,9.481177,0.019296043,-0.12606257,-0.95246,0.27668735,0.2579762,3.3584762,9.323035,0.13148487,-0.16172181,-0.1331647
2023/4/26 16:15,15081,-0.4849441,0.7633877,-0.64705276,0.3649802,2.5898569,9.451446,0.019105215,-0.13262576,-0.9515886,0.27663076,-0.20653051,3.2914772,8.667103,0.05451812,-0.1641652,-0.10262234
2023/4/26 16:15,15121,-0.4442873,0.5110874,0.002566338,0.3886664,2.6466475,9.434753,0.019344626,-0.13582873,-0.95062673,0.2783616,-0.03888337,3.1441689,9.230911,-0.005344913,-0.18249062,-0.019547112
2023/4/26 16:15,15161,-0.14422005,0.5454335,-0.030470848,0.41501513,2.670181,9.426998,0.018587967,-0.13777909,-0.94966334,0.28073284,0.31899318,3.178865,9.2285185,-0.068873025,-0.0762032,0.018325418
2023/4/26 16:15,15202,0.33081916,0.8275602,0.46661854,0.4601591,2.701731,9.415906,0.017614739,-0.13911512,-0.9487617,0.28317478,0.91630155,3.6517465,9.677472,0.07773031,-0.11774081,0.05619795
2023/4/26 16:15,15241,0.8321486,1.6776042,-0.002218247,0.5475958,2.8254375,9.374829,0.015030486,-0.14653789,-0.94737536,0.2842194,1.383201,4.585396,9.208179,0.11804623,-0.08964183,-0.09773556
2023/4/26 16:15,15281,0.23894799,1.1733086,0.40020657,0.581876,2.9172816,9.344584,0.014030634,-0.15185471,-0.947384,0.28143707,0.5907281,3.8098223,9.732507,0.18035266,-0.1421747,-0.2932067
2023/4/26 16:15,15322,-0.3484238,0.5200386,0.26541615,0.58573437,3.0211449,9.311283,0.013932039,-0.15677442,-0.9479154,0.276919,0.23763719,3.5356946,9.392576,0.23288552,-0.054212693,-0.25655586
2023/4/26 16:15,15362,-0.18980074,0.4377861,0.37684536,0.5335039,3.0929563,9.290822,0.017326195,-0.16113003,-0.94808006,0.27364424,0.3130111,3.474528,9.616305,-4.58E-04,0.08383878,-0.28343314
2023/4/26 16:15,15401,-0.5573808,0.15934467,1.0735035,0.41036382,3.0792792,9.301615,0.021775194,-0.15973064,-0.9491008,0.27059135,-0.15987046,3.199204,10.420743,-0.09086353,0.17180079,-0.25777754
2023/4/26 16:15,15442,-0.1367808,-0.3264842,1.4931946,0.28789628,3.0375962,9.319899,0.02763342,-0.15532017,-0.95046556,0.2678195,0.19217357,2.6810083,10.858929,0.10827268,0.18157434,-0.16492876
2023/4/26 16:15,15482,0.31254977,-0.1718905,0.78526115,0.22031203,3.1118436,9.297219,0.031527735,-0.15674111,-0.9506575,0.26587328,0.69601226,2.9910283,10.012617,0.30985227,0.061848287,-0.08674031
2023/4/26 16:15,15521,0.88223565,-0.54827714,0.13690662,0.20669094,3.2438402,9.252306,0.034280635,-0.16346936,-0.9499716,0.26392516,1.052842,2.635395,9.28475,0.5053234,-0.024892027,-0.19424942
2023/4/26 16:15,15561,0.2835133,-1.0797799,-0.97456837,0.19754921,3.477228,9.167346,0.03688898,-0.17368758,-0.94919413,0.25981203,0.4447659,2.417648,8.114061,0.64337486,-0.07986828,-0.23090026
2023/4/26 16:15,15601,0.1227317,-1.3818586,-1.386734,0.20297939,3.61139,9.11521,0.038384493,-0.18323459,-0.9485427,0.2553789,0.3524927,2.1853948,7.741828,0.11438115,0.006872032,-0.25044736
2023/4/26 16:15,15641,0.17410468,-1.695796,-0.63948727,0.115780145,3.564809,9.135049,0.0409999,-0.18124446,-0.9499173,0.25125,0.21131615,1.8237795,8.88141,-0.30221668,0.2121167,-0.25289077
2023/4/26 16:15,15682,-0.11642762,-1.9243026,0.4610052,0.02239516,3.4647682,9.174164,0.043648023,-0.17487921,-0.95181865,0.24809949,-0.15149559,1.5520446,9.628419,-0.043217443,0.044744562,-0.19669282
2023/4/26 16:15,15721,-0.124864765,-1.9591879,0.050149918,0.005744204,3.4533386,9.178497,0.044212665,-0.17345156,-0.9529151,0.24477063,-0.050847482,1.506581,9.143574,0.02275406,-0.029778805,-0.13560809
2023/4/26 16:15,15761,0.07875553,-1.9251363,-0.1447134,-0.017680036,3.4188921,9.191368,0.04424242,-0.17221515,-0.95377874,0.24226148,0.05922236,1.5089738,9.082557,-0.110410646,0.033749312,-0.18691926
2023/4/26 16:15,15802,0.029541753,-1.8794479,0.013798714,-0.053442836,3.3494375,9.216767,0.044595834,-0.16809627,-0.9554506,0.23847215,-0.052043892,1.5017953,9.272786,-0.15927842,0.009315421,-0.19302773
2023/4/26 16:15,15841,0.34905356,-1.6431648,-0.008336067,-0.07671463,3.2714431,9.2445755,0.044345204,-0.16430037,-0.9568229,0.23564577,0.2914757,1.6491034,9.193823,-0.15316994,-0.01511847,-0.1795891
2023/4/26 16:15,15881,0.39316165,-1.4504693,-0.016274452,-0.08556059,3.1824458,9.275511,0.043252274,-0.15949084,-0.9583747,0.23283024,0.301047,1.7579769,9.28116,-0.26312247,-0.013896775,-0.12949961
2023/4/26 16:15,15922,0.25569582,-0.9522188,0.28590012,-0.07799101,3.0793614,9.310308,0.041736137,-0.15449475,-0.95961523,0.23136146,0.20174485,2.1483061,9.575627,-0.16050012,-0.096972,-0.047646087
2023/4/26 16:15,15961,0.16094524,-0.7459743,-0.17904091,-0.046697363,3.0124564,9.332379,0.039314833,-0.15184614,-0.96034116,0.23052546,-0.03888337,2.2488046,9.1256275,-0.19104248,-0.06154286,-0.0684149
2023/4/26 16:15,16001,-0.3145286,-1.0047927,0.19910145,-0.0393335,2.8833277,9.373114,0.036755048,-0.14498784,-0.96179485,0.22929947,-0.38838503,1.8333508,9.6224375,-0.17027368,-0.118962504,0.052532863
2023/4/26 16:15,16042,-0.091850266,-0.8824836,0.07156849,0.027911315,2.7656724,9.408542,0.033029187,-0.1397917,-0.9624263,0.2304407,-0.034097724,1.905285,9.339934,-0.094528615,-0.19226417,0.10750912
2023/4/26 16:15,16081,-0.11243952,-0.5581057,-0.15087986,0.04808864,2.662567,9.438158,0.029869547,-0.13452157,-0.96271473,0.232792,-0.032901313,2.0811574,9.266804,-0.21669807,0.07040015,0.16859384
2023/4/26 16:15,16122,-0.03410933,-0.5372684,0.16756344,0.0580318,2.574461,9.462514,0.028945211,-0.12962934,-0.9626174,0.2360639,0.032901313,2.0416758,9.520593,-0.011453386,-0.052991,0.20768806
2023/4/26 16:15,16161,0.2316674,-0.3214438,-0.39994907,0.10434357,2.568114,9.463841,0.027077667,-0.12930353,-0.96165884,0.24033241,0.3752245,2.2368405,8.896963,0.056961507,-0.010231691,0.19669282
2023/4/26 16:15,16201,0.15999377,-0.48634052,-0.5083904,0.13309273,2.5443773,9.469891,0.025639372,-0.12893133,-0.9610142,0.24325098,0.20653051,2.0249262,9.018997,-0.14583978,0.04352287,0.16859384
2023/4/26 16:15,16242,1.002569,-0.029273987,0.25226498,0.1763779,2.4638932,9.490442,0.023885237,-0.12540098,-0.96059465,0.24690494,1.2683456,2.4415765,9.659526,-0.11774081,0.020310672,0.18691926
2023/4/26 16:15,16281,0.412385,0.039689064,0.05937481,0.2288808,2.4310775,9.497782,0.01993971,-0.12404737,-0.9606787,0.24761072,0.48185465,2.4212375,9.377024,-0.06642964,0.06429167,0.12583454
2023/4/26 16:15,16321,0.3083618,0.3016386,-0.14498997,0.23911576,2.4216268,9.499945,0.01980306,-0.123262525,-0.9599777,0.25071308,0.5907281,2.758775,9.137591,0.004428643,0.028862532,0.21990502
2023/4/26 16:15,16361,0.3310572,0.59192157,-0.47423744,0.28626105,2.4607081,9.488591,0.018496457,-0.12568823,-0.9585581,0.2550035,0.57637113,2.9862428,8.900553,-0.005344913,0.009315421,0.175924
2023/4/26 16:15,16401,0.037286222,0.4460764,-0.42470932,0.295297,2.5115294,9.474989,0.018669395,-0.1279383,-0.95726323,0.25870904,0.30463624,2.9346473,8.863463,0.09483404,0.08994726,0.1783674
2023/4/26 16:15,16441,-0.039798558,0.56241345,-0.62957,0.2996124,2.6088088,9.448531,0.020843914,-0.13272324,-0.95507413,0.2641656,0.23285155,3.109473,8.563015,0.19623469,-0.020005248,0.14415996
2023/4/26 16:15,16482,-0.11953287,0.35892868,-0.6519451,0.29990923,2.700496,9.422726,0.022448203,-0.13761401,-0.95318955,0.26830605,0.19336998,2.9430223,8.637193,-0.031000499,0.07406523,0.07941014
2023/4/26 16:15,16521,-0.15425883,0.18782616,0.08710194,0.2683921,2.6858299,9.427867,0.024586504,-0.13697457,-0.9521392,0.2721477,0.11545369,2.7862923,9.428469,-0.08964183,0.069178455,0.11361759
2023/4/26 16:15,16562,0.015324324,0.36320233,0.22960567,0.2671395,2.6927817,9.425919,0.025488665,-0.1364738,-0.9510636,0.27604952,0.30822545,3.0855448,9.367452,0.05207473,0.016645588,0.19180603
2023/4/26 16:15,16601,0.07552001,0.9618199,-0.056565285,0.2753753,2.7470531,9.410008,0.026389599,-0.1389906,-0.9491645,0.28119728,0.3309573,3.7307096,9.1770735,-0.01267508,0.08506048,0.21257484
2023/4/26 16:15,16641,0.1861681,1.2290456,0.2752962,0.27699953,2.8279805,9.385957,0.02863726,-0.14284542,-0.94641143,0.28823686,0.5033901,4.0971107,9.508629,0.1681357,0.07895201,0.20280129
2023/4/26 16:15,16682,0.016675115,1.235682,-0.046278954,0.27476427,3.007347,9.330099,0.031765785,-0.15026681,-0.94344836,0.29379576,0.18978074,4.246662,9.087342,0.27442312,0.07773031,0.11972606
2023/4/26 16:15,16721,-0.19770204,1.3144875,-0.0946722,0.24235389,3.1656947,9.278471,0.037401512,-0.15885293,-0.9396538,0.30069515,0.1957628,4.460969,9.160323,0.16324893,0.16569231,0.16737215
2023/4/26 16:15,16761,-0.1973533,1.2646189,0.53289795,0.1799453,3.3276618,9.223051,0.043460824,-0.16478078,-0.93626326,0.3071962,-0.09272188,4.5638604,9.704989,0.30007872,0.12781979,0.12216945
2023/4/26 16:15,16801,-0.4514633,0.708601,0.46902466,0.17447615,3.4784234,9.167361,0.04871996,-0.17312762,-0.93258655,0.3129466,-0.26515466,4.003641,9.672687,0.13759334,-0.118962504,0.067193195
2023/4/26 16:15,16842,-0.11471249,-0.37701607,1.3832607,0.17846341,3.4644418,9.172579,0.048979107,-0.17361228,-0.931603,0.3155561,0.10468599,2.8676484,10.907981,-0.07375981,0.033749312,0.067193195
2023/4/26 16:15,16881,0.33956543,-0.6186533,1.3074598,0.18830247,3.5059679,9.156589,0.049099017,-0.17368515,-0.9311842,0.31673145,0.61704916,3.0819557,10.197014,0.42346987,-0.03466558,0.108730815
2023/4/26 16:15,16922,0.6182895,-0.12125683,-0.22941494,0.22651179,3.6724684,9.090217,0.050725132,-0.18298069,-0.92873126,0.3184388,0.7990532,3.4864922,8.869446,0.54563934,-0.18371232,0.061084725
2023/4/26 16:15,16961,0.20535827,-1.0863702,-0.852088,0.34385914,3.8755767,9.00178,0.0489888,-0.19416949,-0.9269399,0.31730226,0.49142596,2.7157042,8.16431,0.46500748,-0.33520243,-0.14049487
2023/4/26 16:15,17001,-0.47612283,-2.1244414,-0.72733974,0.40789598,3.955469,8.964278,0.045990493,-0.2019261,-0.9268902,0.31302595,-0.068793654,1.7005491,8.358279,0.045966256,-0.13117945,-0.1111742
2023/4/26 16:15,17041,-0.5617301,-2.3646564,-0.045565605,0.4204632,3.9317787,8.974113,0.04469592,-0.20152834,-0.9277317,0.31097022,-0.11545369,1.6526927,8.967551,-0.038330667,-0.11407573,-0.025655584
2023/4/26 16:15,17082,-0.26838994,-1.9043723,0.12815094,0.45779657,3.8909478,8.990068,0.042001493,-0.20004016,-0.9283533,0.31045115,0.2795116,1.9950159,9.246465,-0.13240114,-0.10552386,-0.006108473
2023/4/26 16:15,17121,-0.08937359,-1.9125278,0.39181614,0.4687147,3.8160894,9.021539,0.0399284,-0.19664462,-0.9291656,0.31046408,0.35967115,1.9064814,9.466754,-0.21303298,0.004428643,-0.052532863
2023/4/26 16:15,17162,-0.044501573,-1.9177443,0.6644697,0.46767083,3.718978,9.062057,0.03818895,-0.19154795,-0.93060666,0.30955163,0.5201398,1.8058333,9.730114,-0.13606623,-0.031000499,0.008551862
2023/4/26 16:15,17201,0.048431963,-1.8650141,0.3197794,0.4667329,3.6780279,9.078803,0.0372457,-0.1891726,-0.9311152,0.30959812,0.48185465,1.8010477,9.384202,-0.00167983,0.065513365,0.036650836
2023/4/26 16:15,17241,-0.08153874,-1.720959,-0.2726574,0.46025288,3.658519,9.087013,0.037673227,-0.1881153,-0.93090266,0.31082737,0.37761733,1.9423738,8.738888,-0.03955236,0.010537115,0.08063184
2023/4/26 16:15,17281,-0.31959617,-1.6101568,-0.1641016,0.46410626,3.6216238,9.1015835,0.037015926,-0.18619478,-0.93083173,0.31227165,0.048454657,1.9986051,8.943624,-0.04566083,0.027640838,0.047646087
2023/4/26 16:15,17321,-0.576483,-1.3084373,-0.35149956,0.48263454,3.5751314,9.118985,0.036357827,-0.1845418,-0.9306853,0.3137632,0.008973085,2.2870898,8.798858,-0.22280654,-0.12140589,0.050089475
2023/4/26 16:15,17362,-0.001908809,-1.219173,0.76463604,0.49463084,3.4227848,9.176615,0.03269699,-0.17779958,-0.93194556,0.31431776,0.5811568,2.1638594,10.146615,-0.39506546,0.10949437,-0.015882028
2023/4/26 16:15,17401,-0.15450972,-0.97942686,0.6844635,0.40020472,3.2066772,9.258911,0.032100607,-0.16633995,-0.93491113,0.31183603,0.18619151,2.2464118,9.889236,-0.2301367,0.26587126,-0.10017895
2023/4/26 16:15,17442,-0.14822835,-0.7815504,0.3653345,0.29894382,3.1000695,9.298957,0.035603996,-0.15689975,-0.9370935,0.3097912,0.18260227,2.3409283,9.6427765,-0.068873025,0.2133384,-0.05131117
2023/4/26 16:15,17481,-0.033180714,-0.73545957,-0.4097662,0.23096468,3.0517583,9.316856,0.03757615,-0.15384643,-0.93801033,0.30831146,0.18379869,2.3277678,8.889785,0.028862532,0.075286925,-0.039094225
2023/4/26 16:15,17522,-0.06869957,-0.8318322,-0.35035896,0.18778779,3.0049348,9.333032,0.038909074,-0.15086436,-0.93873113,0.30742455,0.066400826,2.1853948,9.0058365,-0.037108973,0.09605573,-0.017103724
2023/4/26 16:15,17561,-0.122271895,-0.715863,-0.5406399,0.16535519,2.9559557,9.349084,0.039266605,-0.1479436,-0.93942106,0.3066902,0.061615184,2.2344477,8.6706915,-0.07375981,0.003206948,-0.004886778
2023/4/26 16:15,17602,-0.12328014,-0.6134937,-0.5222511,0.15430923,2.8996592,9.366886,0.03915703,-0.14518057,-0.9392712,0.30847833,0.020937199,2.282304,8.815607,-0.20081604,0.04718795,0.014660334
2023/4/26 16:15,17641,0.11591709,-0.11904287,-0.15334415,0.15133634,2.789747,9.400255,0.037820492,-0.13913672,-0.93997085,0.30929828,0.29626134,2.6401806,9.0513,-0.08353336,-0.0749815,0.046424393
2023/4/26 16:15,17681,0.16443376,0.07994461,-0.30693054,0.19784361,2.7600324,9.408159,0.035297446,-0.13842107,-0.93997806,0.30989495,0.341725,2.8473094,8.940034,-0.103080474,-0.020005248,0.017103724
2023/4/26 16:15,17722,-0.027841195,0.403646,-0.30037498,0.20620425,2.7495697,9.411042,0.034504227,-0.13774909,-0.93974715,0.31098223,0.20174485,3.0879376,8.943624,-0.07986828,-0.056656085,0.012216945
2023/4/26 16:15,17761,0.12838404,0.30618167,-0.16282177,0.25083086,2.765354,9.405333,0.03309129,-0.13869615,-0.9394191,0.31170517,0.40154555,3.050849,9.033354,0.03863609,-0.12507097,-0.007330167
2023/4/26 16:15,17801,0.12881318,0.4701836,-0.43383217,0.29589748,2.815448,9.389147,0.03134601,-0.14209343,-0.9388444,0.3120867,0.37283167,3.3166018,8.746066,0.04963134,-0.049325917,-0.041537613
2023/4/26 16:15,17841,-0.29355997,0.64276004,-0.27592278,0.30781525,2.8853292,9.367524,0.031790875,-0.14527927,-0.9382106,0.3124806,0.008973085,3.4649568,8.918499,0.06673507,-0.11529742,-0.067193195
2023/4/26 16:15,17881,-0.15856789,0.6723993,-0.37108517,0.33462363,2.9531448,9.345446,0.031950418,-0.14915287,-0.9373723,0.3131545,0.15747765,3.5823545,8.764012,-0.005344913,-0.10430217,-0.09407048
2023/4/26 16:15,17922,-0.3110544,0.57161283,0.01986599,0.31465748,2.97036,9.340682,0.032781713,-0.15078886,-0.9369956,0.31341222,-0.093918286,3.5044384,9.277572,-0.13362284,0.01175881,-0.098957255
2023/4/26 16:15,17961,-0.15161091,0.98331904,0.532362,0.29563615,2.972361,9.340667,0.03433495,-0.14995067,-0.93666977,0.3146199,0.26994032,3.9928732,9.760024,-0.05787778,-0.06398625,-0.029320668
2023/4/26 16:15,18001,0.0359416,1.368968,0.8090706,0.30545846,3.0294874,9.321979,0.035017226,-0.15272015,-0.9355909,0.31641746,0.42068812,4.37722,10.101151,0.05207473,-0.01267508,-0.015882028
2023/4/26 16:15,18042,0.22409773,1.4456122,0.54679585,0.31860805,3.1579835,9.278793,0.03667745,-0.15798064,-0.9338562,0.31876248,0.51176494,4.593771,9.719346,0.1925696,-0.009009997,-0.070858285
2023/4/26 16:15,18081,-0.02912718,1.1374588,0.41209888,0.31279358,3.3128462,9.224836,0.039830726,-0.16642463,-0.93205357,0.3193626,0.17662022,4.4597726,9.68465,0.326956,-0.031000499,-0.12827793
2023/4/26 16:15,18121,-0.32032704,0.8597827,0.25771332,0.30088395,3.5040698,9.154307,0.043528028,-0.175117,-0.93036234,0.3191633,0.04366901,4.3328037,9.482307,0.23288552,-0.11529742,-0.16248538
2023/4/26 16:15,18161,-0.027177155,0.16794372,0.82655525,0.28145763,3.5563653,9.134738,0.04541192,-0.17949356,-0.9302779,0.31670636,0.31540394,3.6457644,10.298709,-0.006566608,0.02519745,-0.21990502
2023/4/26 16:15,18202,0.28673705,-0.5295479,1.1931171,0.2452494,3.5227048,9.148813,0.04574109,-0.17762762,-0.9322695,0.31181687,0.5129613,2.9047372,10.496266,0.075286925,0.09972081,-0.20524468
2023/4/26 16:15,18241,0.04124534,-0.71488,0.19021606,0.18376373,3.5658014,9.133547,0.0477136,-0.1774183,-0.9337153,0.30728143,0.22088744,2.9874392,9.308679,0.38437563,0.06429167,-0.10017895
2023/4/26 16:15,18281,0.28476483,-0.76312876,-0.5048256,0.18233953,3.698246,9.080755,0.050563667,-0.1846125,-0.9328079,0.30533734,0.61106706,2.8712375,8.705388,0.42469156,-0.056656085,-0.0452027
2023/4/26 16:15,18321,0.59807503,-1.6806262,-0.99741364,0.1740928,3.8345428,9.02421,0.052389238,-0.19142072,-0.9318334,0.3038092,0.7033403,2.1937697,8.161918,0.27442312,0.09849912,-0.114839286
2023/4/26 16:15,18362,-0.035259336,-1.9029562,-1.0576935,0.12335863,3.8802094,9.0055065,0.055722177,-0.19422574,-0.9319369,0.3011063,0.025722843,1.9902302,8.224281,0.019088976,0.041079476,-0.123391144
2023/4/26 16:15,18401,-0.25360793,-2.113864,-0.42270184,0.0928413,3.8256023,9.029205,0.056103922,-0.19230558,-0.93304056,0.29884142,-0.14910276,1.7484056,8.852696,-0.24357535,0.041079476,-0.10750912
2023/4/26 16:15,18441,0.4513248,-2.1783547,0.5747738,0.06122421,3.7014563,9.081071,0.05549099,-0.18499002,-0.934815,0.29802755,0.6326025,1.6108183,9.867702,-0.24235365,0.061848287,-0.014660334
2023/4/26 16:15,18482,0.60634816,-1.5893235,0.13993835,0.06712896,3.6370559,9.107014,0.054352265,-0.18112713,-0.93576473,0.2976293,0.666102,2.1614666,9.272786,-4.58E-04,-0.094528615,-0.042759307
2023/4/26 16:15,18521,0.3822236,-1.3628392,-0.53691006,0.098710015,3.6238565,9.111988,0.05215478,-0.18110076,-0.93647504,0.29579875,0.46749774,2.2882862,8.646764,-0.05054761,-0.09086353,-0.092848785
2023/4/26 16:15,18561,0.15376152,-1.8416353,-0.5938883,0.109894924,3.5550482,9.138924,0.050011914,-0.17880212,-0.9377828,0.29341438,0.24481566,1.7364415,8.759227,-0.21669807,-0.052991,-0.114839286
2023/4/26 16:15,18601,-0.10348299,-2.0505757,-0.30487633,0.13116628,3.4700203,9.1712675,0.047448605,-0.17474215,-0.939334,0.29131678,-0.050847482,1.4682958,8.954391,-0.19470756,-0.10552386,-0.07452337
2023/4/26 16:15,18642,-0.3790043,-2.0246594,-0.18119907,0.14922878,3.3835666,9.2032385,0.044274457,-0.16972099,-0.9407426,0.29023764,-0.20054846,1.3283156,9.257233,-0.2814479,-0.062764555,0.0219905
2023/4/26 16:15,18681,0.08317803,-1.7472563,0.2288351,0.18474706,3.2319062,9.256945,0.041272856,-0.16405277,-0.9415247,0.2914009,0.32856447,1.5221343,9.666704,-0.3437543,-0.0749815,0.087962
2023/4/26 16:15,18721,0.5985935,-1.4782829,0.93120384,0.22605415,3.0888333,9.304751,0.036522597,-0.15650141,-0.9426953,0.29240203,0.89835536,1.7412271,10.328619,-0.26434416,-0.038330667,0.06352811
2023/4/26 16:15,18762,0.6776428,-1.1243112,0.5647812,0.25845245,3.002607,9.332092,0.03387276,-0.15247981,-0.94328374,0.29294762,0.92826563,1.9328024,9.912118,-0.10430217,-0.09208523,-0.002443389
2023/4/26 16:15,18801,0.41556904,-1.115338,-0.029767036,0.30345365,2.9534156,9.346424,0.030659143,-0.15069625,-0.943952,0.2920707,0.70692956,1.8897316,9.31466,-0.09086353,-0.10552386,-0.030542362
2023/4/26 16:15,18841,0.073228,-0.91886246,-0.33928013,0.35032457,2.8520494,9.376218,0.026066922,-0.14656341,-0.9456814,0.2890093,0.32736805,1.9471594,9.201001,-0.18249062,-0.043217443,-0.02443389
2023/4/26 16:15,18881,-0.28523886,-0.7735802,-0.099149704,0.35544497,2.7399855,9.409385,0.023919867,-0.14123109,-0.94684094,0.28805175,0.034097724,2.0344975,9.22134,-0.04688253,-0.0762032,0.02687728
2023/4/26 16:15,18921,-0.08344808,-0.38006997,-0.46096134,0.37401173,2.6822455,9.425288,0.022179166,-0.1381761,-0.9470933,0.2888421,0.45194438,2.290679,9.100503,-0.21425468,-0.03466558,0.10262234
2023/4/26 16:15,18961,0.4463097,-0.17919779,0.51491165,0.39298195,2.577748,9.453633,0.019856866,-0.13347247,-0.9474163,0.29016054,0.85648096,2.4894328,9.943225,-0.04688253,0.08628218,0.14660335
2023/4/26 16:15,19001,0.44530037,0.34753633,-0.34772778,0.4334649,2.6124735,9.442324,0.018535465,-0.13439256,-0.9467079,0.29212883,0.8493025,3.048456,8.831161,0.17913096,-0.043217443,0.13438639
2023/4/26 16:15,19042,0.002024114,0.37714958,-1.113451,0.47645304,2.7054822,9.414018,0.018025238,-0.13962568,-0.9452591,0.29438913,0.3453142,3.117848,8.25778,0.061848287,-0.02367033,0.09162709
2023/4/26 16:15,19081,0.36666965,0.33800197,-0.818552,0.49153733,2.697114,9.415645,0.017602641,-0.14034468,-0.9444764,0.2965768,0.9390333,3.0233314,8.687442,-0.13973132,0.017867282,0.06474981
2023/4/26 16:15,19121,0.7093452,0.76089454,-0.022286415,0.48045936,2.6466615,9.430521,0.017413175,-0.13766305,-0.9443583,0.29821658,1.1964114,3.4123147,9.377024,-0.10552386,0.08628218,0.04031592
2023/4/26 16:15,19162,0.22495574,0.7392955,-0.218606,0.45054758,2.6487198,9.43142,0.01879901,-0.13683307,-0.9442735,0.29878244,0.5452645,3.354887,9.11127,0.08994726,0.07406523,-0.007330167
2023/4/26 16:15,19201,-0.38980642,0.81471205,-0.6781168,0.4267219,2.7113504,9.414716,0.020830782,-0.13913606,-0.9437101,0.29936355,0.04127619,3.5237305,8.655139,0.10827268,0.03863609,-0.007330167
2023/4/26 16:15,19241,-0.015135407,0.29865718,0.24395275,0.40098828,2.698295,9.419597,0.02224427,-0.13939545,-0.9434205,0.30005303,0.40034914,2.9047372,9.922886,-0.13362284,0.07162184,0.01099525
2023/4/26 16:15,19282,0.38226894,0.18641591,0.91537,0.39882213,2.7188618,9.413773,0.022906378,-0.13898629,-0.9430038,0.30149958,0.86724865,2.9647074,9.93485,0.35872006,0.03130592,0.06230642
2023/4/26 16:15,19321,-0.08492446,0.37247586,-1.0686073,0.39020163,2.8843322,9.364761,0.025680806,-0.14604661,-0.94152415,0.302561,0.27352953,3.2543883,8.132008,0.33184278,0.037414394,0.02687728
2023/4/26 16:15,19361,-0.3965301,0.4684875,-1.3104467,0.36221933,2.9515052,9.344934,0.02872743,-0.15060687,-0.94037086,0.3036363,0.023330022,3.4075289,8.17149,0.028862532,0.1253764,0.07207998
2023/4/26 16:15,19402,0.23700038,0.79553294,-0.40662766,0.32723,2.963029,9.342579,0.031064384,-0.15062813,-0.9395973,0.30578268,0.5727819,3.786941,9.036943,-0.006566608,0.10582929,0.050089475
2023/4/26 16:15,19441,0.08396846,0.9770975,0.042633057,0.293116,2.9934604,9.334006,0.033425536,-0.15109454,-0.93876207,0.30786192,0.30343983,3.9725342,9.332606,0.04963134,0.10949437,0.03420745
2023/4/26 16:15,19482,-0.3595992,0.9494958,0.15412521,0.23773389,3.0485256,9.317745,0.037425954,-0.15329956,-0.93718934,0.31108636,-0.1369891,3.9593737,9.530164,-0.16660859,0.16202724,0.012216945
2023/4/26 16:15,19521,-0.17593785,0.1734271,1.4542513,0.16282386,2.937025,9.355093,0.039927393,-0.14848731,-0.9371149,0.31332567,0.0424726,2.9862428,11.09477,-0.4121692,0.17424418,0.017103724
2023/4/26 16:15,19561,0.2726927,-0.2494731,2.2214365,0.1095799,2.8549807,9.381229,0.041270114,-0.14135724,-0.93767357,0.31477478,0.5057829,2.6929724,11.318649,0.12781979,0.09849912,0.092848785
2023/4/26 16:15,19601,0.56824636,0.8667247,0.23683548,0.10477585,2.9633718,9.347611,0.043220837,-0.14493456,-0.93646955,0.316466,0.62183475,4.0455155,9.423683,0.35994175,0.059404895,0.08185353
2023/4/26 16:15,19641,0.42122388,1.2163181,-0.24839306,0.11229555,3.0802214,9.309673,0.045644056,-0.15185842,-0.93481225,0.31777617,0.50458646,4.2251267,9.179466,0.2170035,-0.07009472,-0.058641337
2023/4/26 16:15,19681,-0.45144904,-0.3829813,0.24608612,0.11347791,3.189656,9.272734,0.04662224,-0.15668894,-0.9344802,0.31626207,-0.43639103,2.6676981,9.4715395,0.36116344,0.008093726,-0.076966755
2023/4/26 16:15,19722,-0.684295,-0.92498446,-0.34608364,0.096831664,3.3211553,9.226644,0.049919233,-0.16361868,-0.93333614,0.31562746,-0.49381876,2.4320052,8.735298,0.39781427,0.048409645,0.05131117
2023/4/26 16:15,19761,-0.121630065,-0.9825709,-0.7499571,0.08195487,3.443795,9.181717,0.05290367,-0.16932158,-0.9317002,0.31696388,0.002991028,2.437987,8.518747,0.24021569,0.06429167,0.042759307
2023/4/26 16:15,19802,0.12167444,-1.7285392,-0.06674671,0.061395362,3.51797,9.153715,0.05561939,-0.17317002,-0.9307789,0.31712657,0.1646561,1.7890836,9.135199,0.30007872,-0.024892027,-0.015882028
2023/4/26 16:15,19841,0.5392958,-2.0244818,-0.16360474,0.10047529,3.6052797,9.119334,0.0553257,-0.17831528,-0.9302739,0.31580564,0.58235323,1.5293127,8.884999,0.22799873,-0.10185878,-0.061084725
2023/4/26 16:15,19881,-0.105687134,-2.142195,-0.31189156,0.11294856,3.6256402,9.111112,0.054764315,-0.18047832,-0.9305057,0.31398654,0.034097724,1.4934205,8.844321,-0.03955236,-0.029778805,-0.007330167
2023/4/26 16:15,19921,0.13114184,-2.0710926,0.10180473,0.13781257,3.582171,9.127948,0.052820787,-0.17867562,-0.931222,0.31322592,0.1538884,1.5257236,9.334999,-0.060321167,-0.12995775,0
2023/4/26 16:15,19962,-0.1775651,-1.8480964,-0.084199905,0.19775678,3.561374,9.134981,0.049689688,-0.17829923,-0.9316073,0.31280696,-0.055633128,1.7914764,8.892178,0.014202199,-0.09575031,0.058641337
2023/4/26 16:15,20001,-0.33416677,-1.4038355,-0.20717525,0.22232863,3.5204346,9.150273,0.04761613,-0.17706628,-0.9316253,0.31377465,-0.04007978,2.0919251,8.997461,-0.15439165,-0.043217443,0.0891837
2023/4/26 16:15,20042,-0.20032024,-1.4210258,0.08866024,0.25751916,3.4591763,9.172687,0.045262914,-0.17452282,-0.9319223,0.31466472,0.064008005,2.0057836,9.202198,-0.06520794,-0.06765133,0.017103724
2023/4/26 16:15,20081,-0.2761081,-1.291466,-0.21692085,0.24962309,3.416344,9.188943,0.044191655,-0.17232111,-0.93250453,0.31430525,-0.123828575,2.1638594,8.899356,-0.16783029,0.08383878,-0.0452027
2023/4/26 16:15,20121,-0.44855034,-1.0558558,0.12282753,0.20563269,3.2723682,9.242278,0.044303887,-0.1661098,-0.93371457,0.31404117,-0.16704893,2.215305,9.333803,-0.2997733,-0.035887275,-0.009773556
2023/4/26 16:15,20162,0.091897026,-0.9242463,0.24907494,0.20096785,3.1076586,9.299058,0.041560736,-0.15763806,-0.9358005,0.31257066,0.29506496,2.1901805,9.476325,-0.28999972,0.056961507,-0.042759307
2023/4/26 16:15,20201,-0.05853653,-0.7248845,0.3360424,0.17401798,2.958153,9.348232,0.03945675,-0.14854063,-0.9382611,0.3099112,0.08793623,2.2332513,9.542128,-0.1653869,0.014202199,-0.01343864
2023/4/26 16:15,20241,0.04776667,-0.488266,-0.47647,0.19205822,2.871302,9.374921,0.037429385,-0.1443875,-0.93937194,0.30875826,0.20892332,2.3528924,8.669496,-0.13973132,-0.05054761,-0.001221695
2023/4/26 16:15,20282,-0.4624656,-0.4250977,-0.47245312,0.17694548,2.7720864,9.405031,0.035912417,-0.13938567,-0.94011056,0.30898875,-0.34770703,2.2966611,8.95798,-0.30588177,0.050853033,0.050089475
2023/4/26 16:15,20321,-0.35512757,-0.24160957,0.23030663,0.14351363,2.639013,9.443802,0.036005393,-0.13250431,-0.94038063,0.3111759,-0.1381855,2.4152553,9.530164,-0.19837265,-0.031000499,0.09773556
2023/4/26 16:15,20362,-0.24223764,0.14459729,-0.057307243,0.12969576,2.5709596,9.462755,0.035467647,-0.12797858,-0.94016075,0.31378543,-0.10109676,2.7192934,9.156734,-0.20448112,0.07895201,0.076966755
2023/4/26 16:15,20401,-0.172783,0.19806433,-0.10236263,0.08969711,2.5001342,9.482177,0.036655195,-0.12385953,-0.93961054,0.31693417,-0.04965107,2.629413,9.375827,-0.26556584,0.08506048,0.083075225
2023/4/26 16:15,20442,0.13881838,0.13265038,0.30338287,0.086108275,2.4448462,9.496615,0.03644142,-0.12034227,-0.9392083,0.3194957,0.24720849,2.606681,9.507432,-0.00167983,-0.03955236,0.06474981
2023/4/26 16:15,20481,0.32564244,0.52272224,-0.46259975,0.10976158,2.4648404,9.491201,0.035615932,-0.1215089,-0.93872774,0.32055783,0.4639085,2.9599216,8.951998,-0.0749815,0.065513365,0.047646087
2023/4/26 16:15,20521,0.3284443,0.49862027,-0.13412285,0.13247797,2.488881,9.484635,0.03533139,-0.12259061,-0.9383486,0.3212867,0.44117668,2.9575288,9.169894,0.039857782,-0.0762032,-0.041537613
2023/4/26 16:15,20562,0.18290778,0.5205407,-0.3971424,0.16736498,2.5502853,9.467757,0.034236643,-0.1264374,-0.93815064,0.32049158,0.30583265,3.0532417,8.956784,0.08994726,-0.056656085,-0.10140064
2023/4/26 16:15,20601,0.05824089,0.34060073,-0.59955883,0.2045291,2.638271,9.442885,0.03409599,-0.13084911,-0.9377871,0.31979883,0.21969102,2.8676484,8.580961,0.07895201,-0.14828317,-0.175924
2023/4/26 16:15,20641,-0.3135224,0.13231778,-0.4404707,0.20598347,2.6627684,9.435975,0.033723403,-0.13327019,-0.93835723,0.3171553,-0.096311115,2.7719355,8.837143,-0.04199575,-0.043217443,-0.11850437
2023/4/26 16:15,20682,-0.24063765,0.49512577,-0.32244396,0.20531948,2.6748748,9.432564,0.03411491,-0.13355656,-0.9384377,0.31675458,-0.023330022,3.2147572,8.931659,-0.05054761,-0.10552386,-0.028098974
2023/4/26 16:15,20721,0.003148779,1.1513815,0.09409809,0.24650484,2.7148693,9.420144,0.03323284,-0.13597876,-0.9373244,0.31910554,0.24122643,3.869643,9.363863,-0.03955236,-0.13240114,0.03420745
2023/4/26 16:15,20762,-0.106779024,1.2222161,0.54523563,0.28844863,2.78283,9.399098,0.032596663,-0.13986626,-0.9358609,0.3217753,0.02213361,3.9474096,9.892826,0.06429167,-0.11774081,0.030542362
2023/4/26 16:15,20801,-0.25206798,0.8968775,0.55081844,0.32743165,2.899342,9.362531,0.033371124,-0.1451316,-0.93379223,0.32535398,0.16704893,3.7354953,9.738489,0.19745637,-0.17760384,0.070858285
2023/4/26 16:15,20841,0.11939585,0.7919965,0.15864277,0.37047002,2.9980423,9.329784,0.03324572,-0.15174338,-0.9318495,0.32791036,0.50458646,3.8624644,9.5182,0.10949437,-0.007788302,0.006108473
2023/4/26 16:15,20882,0.56692374,0.88841105,0.5085211,0.4023193,3.0851226,9.300029,0.033775683,-0.15623939,-0.9308689,0.32852933,1.0480564,3.9270706,9.831809,0.016645588,-0.068873025,-0.11606098
2023/4/26 16:15,20921,0.48138183,0.28839064,0.7970991,0.41672465,3.0944297,9.296302,0.03219717,-0.15827653,-0.93193346,0.32467192,0.7428219,3.2555847,10.152596,-0.11285403,0.0581832,-0.27488127
2023/4/26 16:15,20961,-0.106999576,-0.023871422,0.86422825,0.35398716,3.0312872,9.319676,0.032676164,-0.15504381,-0.9342658,0.31943867,0.1431207,3.0675986,10.290334,-0.103080474,0.1021642,-0.20280129
2023/4/26 16:15,21002,0.110212296,0.13410926,0.8411751,0.305119,3.022661,9.324206,0.03479834,-0.15268837,-0.9356671,0.31623152,0.4075276,3.2472098,10.242477,0.15469708,0.048409645,-0.10750912
2023/4/26 16:15,21041,-0.29116696,-0.14864516,0.035209656,0.27630696,3.1259327,9.290995,0.037013162,-0.1563543,-0.93561625,0.31433353,-0.064008005,2.9599216,9.42488,0.35505497,0.02275406,-0.06230642
2023/4/26 16:15,21081,-0.7799229,-0.9258957,-0.2283802,0.25151244,3.2209165,9.259202,0.04049192,-0.16157596,-0.93473375,0.31388927,-0.605085,2.2392333,9.150752,0.36238512,-0.12751436,0.087962
2023/4/26 16:15,21122,-0.11160591,-1.2893016,-0.6486826,0.27726352,3.3045778,9.228937,0.041327965,-0.165906,-0.9330708,0.31645876,0.3524927,2.1074786,8.632407,0.28664008,0.04718795,0.2932067
2023/4/26 16:15,21161,0.24594465,-1.0807011,-0.74892235,0.28922883,3.378417,9.201796,0.043013573,-0.16956307,-0.93050456,0.3218066,0.65294147,2.3134108,8.632407,0.17668757,0.07406523,0.3579565
2023/4/26 16:15,21201,0.7737639,-1.02562,-0.70439625,0.31563953,3.4415276,9.177507,0.04401191,-0.17308097,-0.9276998,0.32783997,1.0767702,2.5085754,8.52473,0.24754585,0.037414394,0.25289077
2023/4/26 16:15,21241,0.047349066,-0.9159503,-0.9735451,0.33955798,3.5228283,9.145752,0.044914603,-0.17722939,-0.9258099,0.33082995,0.32617164,2.6473591,8.239835,0.11682454,-0.024892027,0.131943
2023/4/26 16:15,21282,0.2552264,-1.3343072,-0.036167145,0.37174955,3.4943123,9.155435,0.043509133,-0.17745084,-0.9251234,0.3328135,0.7882855,1.986641,9.607931,-0.19104248,-0.01511847,0.08674031
2023/4/26 16:15,21321,0.7194564,-1.9536839,1.1629963,0.39389062,3.4201334,9.18248,0.041151244,-0.17408942,-0.92578155,0.33305857,1.0839486,1.419243,10.4351,-0.02611372,-0.024892027,-0.012216945
2023/4/26 16:15,21361,0.30115473,-1.9793663,0.52478695,0.41151497,3.43898,9.174664,0.04001947,-0.17458133,-0.926355,0.33133993,0.7007979,1.4802599,9.5840025,0.23166382,-0.10552386,-0.028098974
2023/4/26 16:15,21402,0.21821856,-2.097156,-0.6542654,0.4591845,3.5065658,9.146777,0.038741976,-0.17866315,-0.92642003,0.3291268,0.6792625,1.4599209,8.476724,0.13637166,-0.12140589,-0.06352811
2023/4/26 16:15,21441,0.18588182,-1.9083338,-0.57519627,0.47946993,3.4904258,9.151908,0.036862366,-0.17926851,-0.92727995,0.32658207,0.686441,1.5892829,8.732905,-0.11285403,-0.06642964,-0.08185353
2023/4/26 16:15,21482,0.111997366,-1.8740804,-0.30935574,0.49808872,3.415359,9.179194,0.034206674,-0.17623967,-0.92886263,0.3240118,0.59790653,1.5593727,9.095717,-0.27900448,-0.033443887,-0.08063184
2023/4/26 16:15,21521,0.05000758,-1.6612267,0.59141445,0.49568006,3.2897205,9.225098,0.031992417,-0.1705119,-0.9305462,0.32246837,0.5811568,1.6849958,9.889236,-0.20570281,-0.033443887,-0.019547112
2023/4/26 16:15,21562,0.2733693,-1.1349211,0.24528408,0.5050957,3.2269964,9.246716,0.029944569,-0.1666012,-0.93157923,0.32172588,0.8062317,2.194966,9.429666,-0.103080474,-0.013896775,-0.019547112
2023/4/26 16:15,21601,0.04273504,-0.6481583,0.04543495,0.51255745,3.176936,9.263625,0.028692238,-0.16450053,-0.9323756,0.320612,0.57158554,2.5648067,9.405737,-0.12140589,-0.048104223,-0.03787253
2023/4/26 16:15,21641,0.15950114,-0.56869507,0.36834812,0.5243905,3.133448,9.277763,0.026887815,-0.16221754,-0.93321663,0.3194827,0.69122666,2.5767708,9.695418,-0.068873025,-0.00167983,-0.047646087
2023/4/26 16:15,21682,0.15438193,-0.36971283,0.08425236,0.5210572,3.1463356,9.273588,0.026872706,-0.16197108,-0.9337233,0.31812584,0.65653074,2.8497021,9.196216,0.16447063,-0.060321167,-0.057419643
2023/4/26 16:15,21721,0.03887838,-0.346359,-0.6148176,0.54853725,3.1948297,9.255407,0.026076585,-0.16534938,-0.9339491,0.31578267,0.55483574,2.834149,8.668299,0.10460759,-0.056656085,-0.08185353
2023/4/26 16:15,21761,0.10257268,-0.5506761,-0.44860744,0.55072707,3.1858625,9.258368,0.025334293,-0.1655599,-0.9348158,0.31315732,0.63858455,2.6006992,8.890981,-0.0749815,0.05207473,-0.06963659
2023/4/26 16:15,21802,0.3183965,-0.56259227,-0.12485123,0.53527546,3.109913,9.285058,0.024622686,-0.16230753,-0.93616813,0.31086847,0.8397312,2.5348964,9.173484,-0.15194826,0.08872557,-0.028098974
2023/4/26 16:15,21841,0.0511688,-0.036527157,0.05161953,0.50912386,3.0449853,9.30802,0.024228161,-0.15783025,-0.93743753,0.30937594,0.53569317,3.056831,9.252447,-0.033443887,0.07162184,0.05986303
2023/4/26 16:15,21881,0.29873365,0.47129726,-0.19194126,0.53471184,3.079702,9.295156,0.024317184,-0.1586088,-0.93674135,0.31107482,0.9186943,3.6062827,8.978319,0.13026318,-0.068873025,0.11728267
2023/4/26 16:15,21921,0.5823647,0.79807234,-0.58790493,0.58968484,3.168408,9.261957,0.023062002,-0.16441175,-0.935193,0.31281143,1.1700903,4.0742292,8.600103,0.07284354,0.061848287,0.03420745
2023/4/26 16:15,21962,0.5609421,0.96069574,-0.46249962,0.5950217,3.2492492,9.233564,0.023957318,-0.1688323,-0.93411803,0.31360045,1.0540384,4.121039,8.760423,0.075286925,0.014202199,-0.10384403
2023/4/26 16:15,22001,0.03839451,0.45027113,-0.14968395,0.5981017,3.311446,9.211243,0.02467762,-0.1718831,-0.934311,0.31130403,0.6206384,3.6206398,9.032158,0.1693574,-0.043217443,-0.11361759
2023/4/26 16:15,22042,-0.010252833,0.46546054,-0.19998169,0.5764607,3.4272487,9.170172,0.026806226,-0.17661606,-0.93374497,0.310175,0.558425,3.9354455,8.80125,0.25121093,0.056961507,-0.061084725
2023/4/26 16:15,22081,-0.1628583,0.6019726,-0.6066046,0.54834175,3.5499165,9.125118,0.030859524,-0.18312427,-0.9321396,0.310852,0.36924243,4.0923247,8.443224,0.16691402,0.0581832,-0.030542362
2023/4/26 16:15,22122,-0.26421624,0.3991809,-0.5061159,0.49823967,3.645297,9.090322,0.03512967,-0.18725736,-0.93058056,0.31260273,0.07956135,4.07064,8.4276705,0.18157434,0.16447063,0.025655584
2023/4/26 16:15,22161,-0.60985315,0.54465675,-0.52525043,0.4222207,3.744637,9.053718,0.041125473,-0.19074814,-0.9283605,0.3163393,-0.15628123,4.2335014,8.420492,0.016645588,0.06795676,0.12827793
2023/4/26 16:15,22201,0.16876441,0.43588638,0.58680725,0.37877333,3.7444258,9.055727,0.045356214,-0.19049324,-0.92596346,0.32287276,0.66969126,4.137789,9.672687,-0.048104223,0.20845163,0.21868332
2023/4/26 16:15,22242,0.27645674,0.8770604,-0.024695396,0.37297532,3.8189657,9.024787,0.047340818,-0.19220354,-0.924153,0.32673827,0.5560322,4.8415775,8.717352,0.24754585,0.15347537,0.20524468
2023/4/26 16:15,22281,-0.12506732,1.3937678,-0.60120773,0.3552654,3.9423156,8.972308,0.052487236,-0.19898142,-0.91980624,0.3340778,0.19815563,5.152794,8.336743,-0.16172181,0.08872557,0.14415996
2023/4/26 16:15,22321,-0.17679873,-0.35107493,1.5028467,0.31861028,3.8571038,9.010639,0.054147623,-0.19530895,-0.91862166,0.33920002,0.14790635,3.3560834,10.612318,-0.35474956,0.113159455,0.131943
2023/4/26 16:15,22362,0.31502196,-0.8751514,2.0230446,0.3157673,3.7313988,9.063518,0.052426156,-0.18777369,-0.91947955,0.341394,0.7846963,2.9659038,11.033753,-0.051769305,-0.024892027,0.16859384
2023/4/26 16:15,22401,0.91011405,-0.08539653,1.7087202,0.3454208,3.7448995,9.056865,0.051145557,-0.18780248,-0.91890436,0.34311685,1.2215359,3.8911784,10.614711,0.24143738,0.016645588,0.083075225
2023/4/26 16:15,22442,0.1896306,-0.21969128,-0.06489849,0.3606766,3.868005,9.004379,0.052405205,-0.19338003,-0.91776854,0.34286842,0.38479578,3.393172,8.736495,0.40758783,-0.05054761,-0.046424393
2023/4/26 16:15,22481,-0.53838176,-1.2273359,-0.6415825,0.37311724,3.99447,8.948485,0.054226935,-0.20123823,-0.9166551,0.34103668,-0.15149559,2.6042883,8.220692,0.31962582,-0.094528615,-0.0452027
2023/4/26 16:15,22521,-0.4675742,-1.8140135,-0.7582607,0.3968679,4.0602007,8.917829,0.054252688,-0.20558865,-0.91637534,0.33918455,-0.002991028,2.2200909,8.193025,0.044744562,-0.04688253,0.004886778
2023/4/26 16:15,22561,-0.047020286,-2.0607457,-0.117212296,0.40715623,4.034826,8.928874,0.053187143,-0.20499179,-0.91677415,0.33863646,0.43639103,1.9232312,8.912517,-0.03955236,-0.054212693,0.039094225
2023/4/26 16:15,22602,0.19849533,-1.8570583,-0.24868679,0.45065463,4.0075617,8.939057,0.05059059,-0.20432706,-0.91734797,0.33788133,0.71530443,2.22368,8.6395855,-0.08353336,-0.10430217,0.07941014
2023/4/26 16:15,22641,0.41464287,-1.3616462,0.13000584,0.4953039,3.9314892,8.970421,0.046876222,-0.20169565,-0.91810656,0.33793756,0.8720343,2.6006992,9.1974125,-0.22769332,-0.017561859,0.028098974
2023/4/26 16:15,22681,-0.05338341,-1.0830104,0.38445854,0.50735945,3.8368752,9.010625,0.044517618,-0.19757101,-0.9193311,0.33736375,0.44955155,2.7336502,9.368649,-0.2093679,-0.051769305,-0.042759307
2023/4/26 16:15,22721,-0.48474938,-1.3606689,0.6292267,0.5006124,3.7493782,9.047759,0.042434383,-0.1926921,-0.92096364,0.33599856,-0.055633128,2.2655544,9.742078,-0.20692451,0.033749312,-0.050089475
2023/4/26 16:15,22762,-0.6700429,-1.6730645,0.5693598,0.47393143,3.6951823,9.071462,0.04242379,-0.18908231,-0.9218882,0.33551502,-0.1538884,1.966302,9.403344,0.006872032,0.055739813,0.019547112
2023/4/26 16:15,22801,-0.3275472,-1.8325436,-0.2702303,0.455532,3.688083,9.075292,0.04320032,-0.18823399,-0.921974,0.33565697,0.17662022,1.8394824,8.747262,0.05207473,0.037414394,0.070858285
2023/4/26 16:15,22842,-0.056058466,-1.5303018,-0.8756714,0.45691139,3.6978421,9.07125,0.043566056,-0.18866855,-0.9216537,0.33624497,0.4316054,2.2380369,7.9093256,0.001985254,0.028862532,0.054976255
2023/4/26 16:15,22881,0.22502553,-1.4028606,-0.46229744,0.43739507,3.6044958,9.109703,0.043288507,-0.18537532,-0.9220813,0.3369395,0.64935225,2.1122642,8.893374,-0.3852919,0.03130592,-0.03787253
2023/4/26 16:15,22921,0.24620214,-1.4349065,0.6671705,0.44158036,3.4111576,9.183648,0.03876139,-0.1752347,-0.9256941,0.33298767,0.7332506,2.0823538,9.740882,-0.2313584,0.02519745,-0.067193195
2023/4/26 16:15,22962,0.049999177,-0.601383,0.033260345,0.4148417,3.2508364,9.242854,0.03585446,-0.16753826,-0.9288796,0.3283718,0.29865417,2.652145,9.147162,-0.2814479,0.0801737,-0.16370706
2023/4/26 16:15,23001,-0.45842516,-0.89944625,0.41541386,0.35462555,3.08468,9.302116,0.035100225,-0.15784165,-0.93194085,0.3245616,-0.14910276,2.0297117,9.818648,-0.34986275,0.061848287,-0.13438639
2023/4/26 16:15,23042,-0.48812076,-0.7936864,0.33315086,0.29051802,2.9363472,9.352211,0.035049688,-0.14882539,-0.93443006,0.32165667,-0.17542382,2.1889842,9.477522,-0.08353336,0.014202199,-0.043981
2023/4/26 16:15,23081,-0.3406954,-0.29406142,-0.46243763,0.25055417,2.858725,9.377382,0.0354585,-0.14413257,-0.9355127,0.3206001,-0.15029918,2.5707889,8.840732,-0.19959435,0.044744562,-0.03298575
2023/4/26 16:15,23122,-0.21274532,-0.239707,0.22522163,0.202228,2.7304869,9.416684,0.03579174,-0.13761848,-0.93638766,0.32087103,0.037686955,2.3648565,9.965957,-0.4537068,0.09972081,-0.019547112
2023/4/26 16:15,23161,0.27206233,-0.20834684,1.2638884,0.17198212,2.5519176,9.467234,0.034457535,-0.12837842,-0.9380095,0.32010916,0.5141578,2.399702,10.632657,-0.12384928,0.034971006,0.031764057
2023/4/26 16:15,23201,0.4854142,0.24403524,-0.06514835,0.1932134,2.5349567,9.47138,0.032509133,-0.12662749,-0.93879056,0.31871757,0.6433702,2.7348468,9.245269,7.64E-04,0.010537115,-0.008551862
2023/4/26 16:15,23242,0.004812971,-0.010967016,-0.6032181,0.20590718,2.5614803,9.463974,0.032341074,-0.12753172,-0.93866855,0.31873354,0.030508488,2.4535406,8.607282,0.107050985,-0.05054761,0.002443389
2023/4/26 16:15,23281,-0.47205117,-0.020831108,-1.1646948,0.224171,2.5855258,9.457019,0.031974766,-0.1296161,-0.9384022,0.31871405,-0.25319055,2.6246274,8.398957,-0.03955236,-0.056656085,0.039094225
2023/4/26 16:15,23322,-0.41297656,0.2377367,-0.4011793,0.2371426,2.5372097,9.469779,0.030966574,-0.12828922,-0.9382602,0.31976664,-0.123828575,2.7731318,9.118449,-0.22158484,-0.017561859,0.08674031
2023/4/26 16:15,23361,0.12245138,0.2579012,0.42740345,0.22812739,2.4595237,9.490474,0.02995684,-0.12385329,-0.9381747,0.32185572,0.37761733,2.7145078,9.977921,-0.19837265,0.09972081,0.076966755
2023/4/26 16:15,23401,0.275406,0.33299375,0.33771038,0.23454794,2.4349456,9.496652,0.029635975,-0.12209798,-0.9377943,0.32365972,0.53569317,2.7695427,9.836595,0.006872032,-0.048104223,0.09651387
2023/4/26 16:15,23441,0.5071171,0.12640095,-0.09190369,0.2890869,2.4774714,9.484142,0.02799763,-0.12431204,-0.93724924,0.3245404,0.8588738,2.629413,9.342327,0.15103199,-0.018783553,0.098957255
2023/4/26 16:15,23482,0.65023184,0.10890818,-0.75162315,0.35194764,2.5527377,9.462031,0.02603249,-0.12935793,-0.936776,0.32409808,0.9713364,2.6857939,8.549854,0.18035266,-0.054212693,-0.006108473
2023/4/26 16:15,23521,0.28876203,0.39678192,-1.2460337,0.40038314,2.6393538,9.436308,0.024605105,-0.13456738,-0.9367992,0.3220146,0.63858455,3.0963125,8.154739,0.08628218,-0.054212693,-0.14049487
2023/4/26 16:15,23561,0.13622946,0.6496806,-0.8909521,0.40668145,2.6637404,9.429183,0.024218105,-0.1365196,-0.93779546,0.31830114,0.46630132,3.3166018,8.596515,-0.005344913,-0.052991,-0.24311721
2023/4/26 16:15,23602,-0.38449946,0.7285974,-0.6721058,0.3731873,2.6786075,9.426356,0.024869548,-0.13684388,-0.9392526,0.31378302,-0.098703936,3.381208,8.713762,0.021532366,0.0361927,-0.2663294
2023/4/26 16:15,23641,-1.1998329,0.5276115,-0.44222832,0.33912954,2.6970756,9.422376,0.026649645,-0.1373334,-0.94056654,0.30945748,-0.9127123,3.1645079,8.942427,0.016645588,-0.018783553,-0.1563769
2023/4/26 16:15,23682,-0.89849967,0.6653006,-0.22489262,0.29794452,2.6977556,9.423573,0.02800567,-0.13713223,-0.94097507,0.3081824,-0.5237291,3.442225,9.204591,-0.04688253,0.14248012,0.008551862
2023/4/26 16:15,23721,-0.43258578,1.3844867,0.29002094,0.2590116,2.7067657,9.42214,0.030780576,-0.13636269,-0.94051313,0.30966568,-0.008973085,4.1461635,9.713365,0.07406523,0.039857782,0.08674031
2023/4/26 16:15,23761,0.34187603,1.7610173,0.5031338,0.27084664,2.7746792,9.402032,0.031708784,-0.13951993,-0.93949264,0.31125918,0.7990532,4.4968615,9.831809,0.1925696,-0.051769305,0.07941014
2023/4/26 16:15,23802,0.88893986,1.3110173,0.43501568,0.31205496,2.8637109,9.374016,0.031463344,-0.14403695,-0.93862003,0.3118587,1.1353943,4.127021,9.768399,0.20234315,-0.11163234,-0.019547112
2023/4/26 16:15,23841,0.6357449,1.122621,0.32823467,0.3695249,2.9688754,9.339145,0.030189028,-0.15052287,-0.93792796,0.31100264,0.9043374,4.2035913,9.522985,0.33306447,-0.13973132,-0.0891837
2023/4/26 16:15,23881,-0.72562945,1.3339446,0.1614151,0.3978579,3.088929,9.298958,0.030221295,-0.15709603,-0.93781126,0.308087,-0.45553362,4.3088756,9.5122175,0.06429167,-0.17393875,-0.23334365
2023/4/26 16:15,23921,-0.6458421,-0.5811341,2.3545732,0.47399908,3.0334895,9.313627,0.02574832,-0.15704677,-0.9397486,0.30256552,0.050847482,1.8034406,12.194871,-0.27289602,-0.4524851,-0.16126367
2023/4/26 16:15,23961,-0.6727141,-1.8765383,2.5218258,0.5093529,3.0230727,9.315147,0.021503422,-0.15611854,-0.9410471,0.29932424,-0.5285147,1.6108183,11.149806,0.5554129,0.26953635,0.11850437
2023/4/26 16:15,24001,-1.46065,-0.5439322,-1.5093317,0.4863378,3.3074536,9.219252,0.028495198,-0.16870289,-0.93747073,0.30311054,-1.0217353,2.927469,7.2713394,0.8217423,-0.11163234,0.31397548
2023/4/26 16:15,24041,-1.1724904,-1.0045645,-2.7821007,0.5482975,3.5117536,9.139877,0.030080471,-0.18124135,-0.93345857,0.30806136,-0.5500501,2.392374,6.3831534,0.12293301,0.075286925,0.3323009
2023/4/26 16:15,24082,-0.8046012,-1.9080132,-0.56178665,0.47862476,3.3924716,9.188712,0.032341044,-0.17741409,-0.9319468,0.3145686,-0.341725,1.4024931,8.995069,-0.5172349,0.38437563,0.42514968
2023/4/26 16:15,24121,-0.19303668,-1.9391148,0.84851456,0.44938534,3.234442,9.24699,0.033519827,-0.16620259,-0.9304558,0.3248155,0.41350967,1.3558332,9.982706,-0.14339639,0.11560284,0.5986303
2023/4/26 16:15,24161,-0.027917892,-1.3438692,0.27042007,0.50244737,3.168601,9.267033,0.03207819,-0.16328758,-0.9273578,0.33513528,0.5033901,1.9423738,9.415308,-0.062764555,0.103385895,0.6927008
2023/4/26 16:15,24202,-0.020218194,-0.7105539,-0.18373108,0.5424271,3.1273463,9.278786,0.031154819,-0.16131319,-0.9229809,0.348014,0.49501517,2.4511478,9.016604,-0.08842014,0.091168955,0.6523849
2023/4/26 16:15,24241,-0.3401111,-0.7702472,0.20156765,0.6067199,3.0449882,9.302168,0.029178027,-0.15877484,-0.9195599,0.35825792,0.27233312,2.136342,9.555288,-0.22402823,-0.01267508,0.58885676
2023/4/26 16:15,24282,-0.43393692,-1.0529613,0.6890373,0.66247994,2.943492,9.330989,0.025569728,-0.15415698,-0.9160997,0.36924672,0.1849951,1.8729819,9.9372425,-0.17638214,0.065513365,0.6291727
2023/4/26 16:15,24321,-0.22694165,-0.84520507,0.55319786,0.7161921,2.8717847,9.349348,0.023376223,-0.15111102,-0.91232127,0.37985387,0.5620142,2.035694,9.809077,-0.02611372,0.026419144,0.7562289
2023/4/26 16:15,24361,-0.18059504,-0.50409865,-0.10222721,0.80057406,2.8522263,9.348491,0.021214804,-0.15125743,-0.9065213,0.39356092,0.56560344,2.3002503,9.1256275,0.05451812,-0.007788302,0.74889874
2023/4/26 16:15,24401,-1.0105894,-0.78470993,-0.14961624,0.87241006,2.832199,9.348151,0.019380713,-0.15177721,-0.9011768,0.40554708,-0.2711367,1.9100707,9.205787,-0.038330667,0.032527618,0.7623374
