time(ms),acc.x,acc.y,acc.z,acclinear.x,acclinear.y,acclinear.z,gravity.x,gravity.y,gravity.z,gyroscope.x,gyroscope.y,gyroscope.z,RV.x,RV.y,RV.z,RV.cos,RV.heading
1,-0.78900003,1.24605,10.473001,-0.556,-0.123,0.751,-0.22,1.363,9.708,-0.30621248,0.495275,-0.14093749,0.061665,-0.034361,-0.618334,0.782737,0
41,-0.231,1.368,10.236,0.034,0.038,0.582,-0.279,1.31,9.714,0.1709125,-0.1684375,0.0444125,0.061402,-0.030558,-0.618813,0.782537,0
81,-0.076050006,1.46595,9.04605,0.154,0.039,-0.661,-0.222,1.392,9.704,0.1208625,-0.0257125,-0.02915,0.062897,-0.035255,-0.61875,0.782271,0
121,-0.39900002,1.5469501,9.65205,-0.188,0.139,-0.072,-0.22,1.413,9.701,-0.0400125,-0.0746625,-0.0408375,0.063605,-0.036053,-0.619208,0.781815,0
161,-0.291,1.2910501,9.70905,-0.098,-0.128,-0.005,-0.187,1.408,9.703,-0.0154,0.01265,-0.06325,0.062359,-0.037259,-0.619892,0.781316,0
201,-0.45105,1.27005,9.94095,-0.237,-0.123,0.223,-0.212,1.39,9.705,0.007975,-0.02255,0.022,0.062402,-0.035716,-0.620308,0.781055,0
241,-0.38700002,1.353,9.832951,-0.204,-0.056,0.13,-0.176,1.405,9.703,0.0633875,-0.1375,0.049775,0.061894,-0.037569,-0.619986,0.781264,0
281,0.013950001,1.5190501,9.283051,0.123,0.074,-0.424,-0.109,1.437,9.7,0.0356125,-0.1087625,0.041249998,0.061113,-0.041231,-0.619085,0.781855,0
321,-0.26700002,1.3099501,10.02705,-0.161,-0.116,0.322,-0.097,1.423,9.702,0.0037125,0.01265,0.012375,0.06021,-0.041217,-0.618274,0.782568,0
362,-0.09,1.353,9.65205,-0.009,-0.105,-0.054,-0.071,1.453,9.698,0.13255,-0.197175,0.0614625,0.060619,-0.043166,-0.617807,0.782799,0
401,0.024,1.5829501,9.534,0.006,0.09,-0.158,0.007,1.489,9.692,0.009075,-0.095975,0.013475,0.059618,-0.047432,-0.616979,0.783282,0
441,0.28305,1.389,10.08705,0.25,-0.085,0.383,0.021,1.474,9.695,-0.026124999,0.038225,0.0177375,0.058583,-0.047492,-0.616426,0.783792,0
481,-0.20205002,1.6309501,9.817051,-0.183,0.131,0.113,-0.007,1.489,9.692,0.0985875,0.0947375,-0.036575,0.060073,-0.046807,-0.616743,0.783471,0
521,-0.25995,1.6459501,9.549001,-0.259,0.096,-0.137,0.001,1.538,9.685,0.1282875,-0.1918125,0.0242,0.061728,-0.048984,-0.617121,0.782911,0
561,0.14400001,1.62195,9.340051,0.084,0.048,-0.349,0.051,1.572,9.679,-0.0367125,-0.0044,0.0785125,0.061596,-0.051803,-0.616144,0.78351,0
602,0.18405001,1.4899501,10.03905,0.13,-0.063,0.354,0.046,1.548,9.683,-0.0176,-0.0075625,0.0166375,0.060849,-0.050759,-0.615211,0.784369,0
641,-0.123,1.69305,9.5130005,-0.204,0.118,-0.188,0.054,1.556,9.682,-0.010175,0.003025,-0.0471625,0.0609,-0.05134,-0.61541,0.784172,0
681,-0.24105,1.473,9.667951,-0.268,-0.077,-0.026,0.036,1.548,9.683,0.006875,-0.029975,0.0103125,0.061111,-0.050453,-0.615804,0.783903,0
721,0.049950004,1.57095,9.8220005,0.003,0.024,0.094,0.051,1.541,9.684,-0.0900625,0.0573375,0.014575,0.060336,-0.050691,-0.615884,0.783885,0
761,-0.22395001,1.6020001,9.759001,-0.245,0.057,0.118,0,1.522,9.687,0.0378125,0.0743875,0.07425,0.061336,-0.04806,-0.615359,0.784385,0
802,-0.010950001,1.626,9.582001,0.008,0.113,-0.138,-0.008,1.534,9.685,-0.077275,0.070125,0.0529375,0.062057,-0.048026,-0.614577,0.784944,0
841,-0.21405001,1.61205,9.972,-0.167,0.098,0.28,-0.036,1.508,9.689,-0.0314875,-0.0661375,0.0529375,0.06195,-0.046042,-0.613859,0.785632,0
881,-0.00405,1.3099501,10.36005,-0.025,-0.166,0.633,0.012,1.501,9.691,0.006875,-0.014025,0.066825,0.060138,-0.047732,-0.613465,0.78598,0
922,-0.36105,1.5120001,9.723001,-0.297,-0.009,0.023,-0.053,1.518,9.688,0.14533749,0.1969,0.165825,0.063199,-0.045432,-0.611829,0.78715,0
961,0.03795,1.4280001,9.924001,0.062,-0.15,0.314,-0.062,1.553,9.682,0.0037125,0.0072875,0.080575,0.064813,-0.046105,-0.610004,0.788395,0
1001,0.39705002,1.7029501,9.34305,0.433,0.101,-0.308,-0.051,1.576,9.678,0.1038125,0.055275,0.0583,0.065439,-0.047186,-0.608948,0.789095,0
1041,-0.30795002,1.6789501,9.82905,-0.201,0.123,0.103,-0.087,1.591,9.676,-0.06765,0.140525,-0.037675,0.06718,-0.046244,-0.60912,0.788872,0
1081,-0.16395001,1.7080501,9.1699505,-0.015,0.115,-0.509,-0.147,1.587,9.676,-0.0059125,0.088275,0.032725,0.068874,-0.043644,-0.609091,0.788897,0
1121,-0.052050002,1.38705,10.012951,0.094,-0.188,0.33,-0.135,1.563,9.68,-0.13585,-0.113025,-0.0312125,0.067537,-0.043431,-0.609317,0.788849,0
1162,-0.19095,1.35105,9.616051,-0.079,-0.172,-0.017,-0.085,1.516,9.688,-0.0059125,-0.031075,-0.0834625,0.064016,-0.044009,-0.610406,0.78827,0
1201,-0.48705003,1.34595,9.89595,-0.361,-0.144,0.223,-0.114,1.491,9.691,-0.06765,-0.028875,0.0242,0.06392,-0.042048,-0.610346,0.78843,0
1241,0.069000006,1.34595,9.640051,0.137,-0.129,-0.066,-0.069,1.463,9.696,-0.0378125,-0.12045,0.013475,0.061406,-0.042945,-0.609771,0.789026,0
1281,-0.31005,1.34595,10.059,-0.241,-0.11,0.352,-0.058,1.445,9.699,0.009075,0.0083875,0.0199375,0.060297,-0.042829,-0.609899,0.78902,0
1321,0.18405001,1.52295,9.426001,0.172,0.048,-0.271,0.004,1.463,9.696,0.0133375,-0.2462625,0.0103125,0.059113,-0.045897,-0.609214,0.789466,0
1362,-0.29295,1.3300501,10.015051,-0.298,-0.122,0.311,0.012,1.444,9.699,-0.0133375,0.121275,0.0358875,0.058092,-0.045564,-0.608744,0.789923,0
1401,0.13905,1.4610001,9.60795,0.106,0.006,-0.096,0.029,1.45,9.698,0.0026125,-0.1610125,0.0422125,0.057769,-0.046538,-0.607603,0.790768,0
1441,-0.19500001,1.4950501,9.747001,-0.23,0.036,0.039,0.039,1.447,9.699,0.007975,0.0829125,0.0114125,0.057487,-0.046663,-0.607154,0.791126,0
1481,0.109950006,1.5139501,9.703951,0.052,0.051,0,0.056,1.46,9.697,0.03355,-0.111925,-0.02585,0.057499,-0.047724,-0.606959,0.791212,0
1521,-0.372,1.4089501,9.40995,-0.408,-0.067,-0.297,0.041,1.47,9.695,0.039875,-0.0320375,0.066825,0.058413,-0.047446,-0.606872,0.791228,0
1561,1.0320001,1.4970001,9.213,0.859,-0.013,-0.482,0.162,1.497,9.69,-0.009075,-0.3271125,0.0358875,0.055608,-0.053372,-0.605426,0.79216,0
1602,-0.064050004,1.3060501,9.793051,-0.205,-0.135,0.092,0.178,1.429,9.7,-0.30195,0.3119875,-0.12925,0.052443,-0.051713,-0.607011,0.791272,0
1641,-0.17895001,1.4760001,10.23795,-0.236,0.151,0.511,0.055,1.315,9.717,-0.246675,0.18205,-0.053625,0.051531,-0.043246,-0.608471,0.790718,0
1681,0.46905002,1.0350001,9.43395,0.426,-0.219,-0.3,0.037,1.254,9.725,-0.127325,0.0286,-0.120725,0.049571,-0.040705,-0.610272,0.78959,0
1721,-0.94005007,1.248,10.83405,-0.904,0.07,0.928,-0.007,1.169,9.736,-0.2242625,-0.102437496,-0.104775,0.047174,-0.036254,-0.612512,0.788218,0
1761,0.52695,0.76005006,10.023001,0.468,-0.377,0.095,0.085,1.148,9.738,0.2998875,-0.2195875,0.022,0.04375,-0.039785,-0.612411,0.788324,0
1801,0.105000004,1.4320501,9.469951,0.053,0.244,-0.426,0.106,1.224,9.729,-0.1219625,0.224675,-0.1579875,0.046041,-0.042703,-0.61302,0.787567,0
1841,-0.59805006,1.30305,9.99405,-0.616,0.096,0.344,0.002,1.184,9.734,0.0048125,0.037125,-0.0972125,0.047582,-0.037357,-0.614761,0.786389,0
1881,-0.19095,1.3440001,9.774,-0.147,0.147,-0.048,-0.002,1.201,9.732,-0.061325,0.08085,-0.061049998,0.048425,-0.037644,-0.615561,0.785698,0
1921,0.15105,1.31505,9.73305,0.186,0.104,-0.007,-0.036,1.202,9.732,0.06875,-0.0853875,0.0199375,0.049521,-0.03643,-0.615704,0.785574,0
1962,-0.64500004,1.2,9.987,-0.626,-0.019,0.252,-0.013,1.217,9.73,-0.010175,0.0499125,-0.103675,0.049363,-0.037854,-0.616375,0.784991,0
2001,-0.36495003,1.15695,9.498,-0.347,-0.099,-0.234,-0.006,1.243,9.727,0.1529,-0.3026375,0.1584,0.050169,-0.038951,-0.616192,0.78503,0
2041,-0.43500003,1.164,9.027,-0.44,-0.104,-0.708,0.018,1.262,9.725,-0.0911625,0.0606375,0.2190375,0.050298,-0.040407,-0.613699,0.786899,0
2081,0.79200006,0.9990001,10.473001,0.766,-0.192,0.725,0.023,1.186,9.734,-0.1964875,0.08085,0.2883375,0.047259,-0.037988,-0.609859,0.790186,0
2121,0.44295,1.53795,9.541051,0.422,0.391,-0.206,0.013,1.133,9.74,-0.1571625,0.22893749,-0.0248875,0.045485,-0.035853,-0.608428,0.791492,0
2162,-0.19800001,1.0710001,10.224001,-0.17,-0.027,0.469,-0.02,1.089,9.745,-0.059125,-0.02035,-0.0823625,0.044686,-0.03318,-0.610202,0.790287,0
2201,-0.13995,1.2580501,9.658951,-0.087,0.154,-0.087,-0.048,1.098,9.744,-0.0048125,0.093637496,0.0166375,0.046209,-0.032344,-0.610466,0.790031,0
2241,0.34500003,1.116,9.798,0.385,0.013,0.048,-0.044,1.103,9.744,0.0270875,0.0083875,-0.0429,0.046026,-0.032639,-0.609944,0.790432,0
2281,-0.39900002,1.014,9.958051,-0.355,-0.092,0.211,-0.039,1.1,9.744,-0.0378125,0.036025,-0.137775,0.045652,-0.032802,-0.611772,0.789033,0
2321,-0.186,0.99405,9.86505,-0.095,-0.106,0.116,-0.081,1.1,9.744,0.0815375,-0.0064625,0.0231,0.04691,-0.031212,-0.612857,0.788182,0
2361,0.112950005,1.0849501,9.57495,0.192,-0.035,-0.222,-0.056,1.111,9.743,-0.093225,0.0638,-0.1079375,0.046552,-0.032595,-0.613208,0.787874,0
2402,-0.68100005,1.10895,9.915001,-0.577,0.026,0.223,-0.117,1.077,9.746,-0.0218625,0.0083875,-0.0334125,0.047063,-0.029075,-0.614683,0.786831,0
2441,0.14400001,1.09305,9.53205,0.244,0.015,-0.226,-0.108,1.074,9.747,-0.06875,0.056375,0.00495,0.046618,-0.029331,-0.614385,0.787081,0
2481,-0.162,0.97800004,10.269,0.003,-0.044,0.519,-0.127,1.039,9.75,-0.0314875,-0.0427625,-0.02805,0.045763,-0.027596,-0.614965,0.78674,0
2521,-0.09705,1.0900501,9.43395,0.069,0.04,-0.283,-0.097,1.049,9.749,0.007975,0.054175,-0.101475,0.045291,-0.02909,-0.61552,0.78628,0
2561,-0.66195005,0.99405,10.200001,-0.534,0.004,0.408,-0.173,1.017,9.752,-0.1326875,0.1309,0.022,0.046625,-0.024363,-0.616121,0.785892,0
2602,0.055050004,1.0690501,9.450001,0.266,0.027,-0.218,-0.183,1.008,9.752,0.076175,-0.054449998,-0.0312125,0.046333,-0.02438,-0.615405,0.786469,0
2641,-0.77895004,1.0180501,9.91695,-0.555,0.011,0.162,-0.22,0.995,9.753,-0.1838375,0.1755875,-0.02915,0.046965,-0.022513,-0.616426,0.785687,0
2681,0,0.91995007,10.144951,0.264,-0.043,0.377,-0.264,0.955,9.756,0.0622875,-0.0768625,0.0677875,0.046739,-0.019469,-0.615649,0.786391,0
2721,-0.43005002,1.04205,9.52005,-0.22,0.042,-0.247,-0.203,0.992,9.754,0.0378125,-0.0512875,-0.0493625,0.046262,-0.023162,-0.616049,0.786006,0
2761,-0.064050004,1.00905,9.661051,0.157,0.01,-0.096,-0.212,0.997,9.753,0.00165,-0.012925,0.03795,0.046747,-0.022895,-0.616209,0.78586,0
2801,-0.19995001,0.966,9.826051,-0.014,-0.041,0.065,-0.176,0.994,9.754,-0.032449998,-0.0523875,-0.078099996,0.045498,-0.02428,-0.61693,0.785326,0
2842,-0.40095,1.014,10.03005,-0.206,0.023,0.269,-0.188,0.983,9.755,0.0037125,0.005225,-0.002475,0.045439,-0.023491,-0.617704,0.784744,0
2881,-0.102000006,0.9799501,9.807,0.079,-0.037,0.053,-0.175,1.004,9.753,0.10065,-0.0609125,-2.75E-04,0.045825,-0.024665,-0.617379,0.784942,0
2921,-0.384,1.047,9.622951,-0.218,0.008,-0.135,-0.162,1.026,9.751,0.00165,0.006325,-0.019524999,0.046329,-0.025853,-0.617297,0.784938,0
2961,-0.135,0.975,9.8550005,0.039,-0.06,0.096,-0.162,1.027,9.751,0.026124999,-0.014025,-0.0226875,0.046382,-0.025846,-0.616459,0.785594,0
3001,-0.48495004,1.014,9.618,-0.31,-0.023,-0.134,-0.166,1.031,9.75,-0.0292875,0.0020625,-0.014162499,0.046683,-0.02585,-0.61662,0.785449,0
3042,-0.19095,0.89595,10.032001,-0.017,-0.134,0.272,-0.172,1.019,9.751,0.0441375,-0.0149875,0.0358875,0.046393,-0.025199,-0.61657,0.785527,0
3081,-0.33405003,1.04505,9.582001,-0.177,-0.007,-0.174,-0.149,1.042,9.749,0.009075,-0.0416625,0.0028875,0.046602,-0.026844,-0.616424,0.785575,0
3121,-0.14295001,1.03695,9.967951,0.028,0.006,0.205,-0.164,1.028,9.751,-0.032449998,0.0297,0.0572,0.046525,-0.025774,-0.616072,0.785891,0
3161,-0.135,1.0830001,9.835951,0.028,0.048,0.082,-0.15,1.027,9.751,-0.0187,0.0265375,-0.001375,0.046027,-0.026265,-0.615767,0.786143,0
3201,-0.16695,1.07805,9.999001,0,0.045,0.246,-0.162,1.03,9.75,0.056925,-0.014025,0.0166375,0.046584,-0.025965,-0.615558,0.786284,0
3241,-0.21405001,1.09305,9.526951,-0.043,0.017,-0.227,-0.146,1.058,9.748,0.039875,0.0488125,-0.019524999,0.047218,-0.027403,-0.615492,0.786249,0
3281,-0.38895002,1.11195,9.82905,-0.183,0.041,0.073,-0.183,1.062,9.747,-0.0122375,0.020075,0.014575,0.04852,-0.025985,-0.615225,0.786427,0
3321,-0.32205,1.023,9.58005,-0.141,-0.047,-0.171,-0.171,1.069,9.746,0.0154,-0.031075,0.00715,0.048416,-0.026728,-0.614829,0.786718,0
3361,-0.28395,1.014,10.07295,-0.098,-0.065,0.304,-0.187,1.059,9.747,-0.03575,0.0339625,0.0336875,0.048543,-0.025718,-0.61422,0.78722,0
3402,-0.279,1.09305,9.964951,-0.103,0.032,0.263,-0.182,1.057,9.747,0.060225,-0.0044,0.0433125,0.048359,-0.025865,-0.613371,0.787888,0
3441,0.024,1.1190001,9.417001,0.178,0.043,-0.292,-0.17,1.085,9.744,5.50E-04,-0.01925,0.014575,0.049005,-0.027433,-0.612713,0.788306,0
3481,-0.38205,1.07595,10.144951,-0.194,-0.017,0.359,-0.175,1.065,9.746,-0.0400125,0.0968,6.88E-04,0.048452,-0.026365,-0.613076,0.788095,0
3521,-0.022950001,1.131,9.319051,0.166,0.04,-0.427,-0.18,1.09,9.744,0.0952875,-0.048125,0.0103125,0.049621,-0.026881,-0.61262,0.788359,0
3561,-0.60195005,1.0489501,10.03695,-0.426,-0.038,0.279,-0.172,1.087,9.744,-0.10065,0.0510125,-0.0301125,0.049244,-0.027127,-0.612951,0.788118,0
3601,-0.016050002,1.16205,9.70695,0.181,0.076,-0.047,-0.194,1.081,9.744,0.0889625,-0.054449998,0.0848375,0.049741,-0.025998,-0.612011,0.788854,0
3642,-0.18105,1.22895,9.508051,-0.019,0.116,-0.235,-0.157,1.109,9.742,-0.093225,-0.0268125,-0.0462,0.049711,-0.028329,-0.611655,0.789052,0
3681,-0.52605003,0.98700005,10.530001,-0.335,-0.079,0.781,-0.182,1.06,9.747,-0.040975,0.0308,6.88E-04,0.048467,-0.025856,-0.612382,0.788651,0
3721,-0.24300002,1.12395,9.462001,-0.069,0.031,-0.292,-0.161,1.085,9.745,0.0985875,-0.1343375,0.047575,0.048865,-0.027461,-0.612046,0.788833,0
3761,-0.32505003,0.99000007,9.675,-0.164,-0.109,-0.074,-0.148,1.09,9.744,-0.0858,0.0595375,0.015675,0.048655,-0.028089,-0.611649,0.789131,0
3801,-0.171,0.84405005,10.405951,-0.003,-0.214,0.656,-0.16,1.045,9.749,-0.0165,-0.047025,0.0507375,0.047227,-0.026215,-0.611235,0.789603,0
3842,0.04095,0.85095006,9.55095,0.168,-0.226,-0.199,-0.127,1.071,9.747,0.1912625,-0.0501875,-0.015262499,0.047246,-0.028341,-0.611077,0.789651,0
3881,-0.45105,0.83895004,9.264001,-0.329,-0.264,-0.482,-0.119,1.094,9.744,-0.06985,0.0350625,-0.0589875,0.047922,-0.029448,-0.612112,0.788767,0
3921,-0.51600003,0.85095006,10.02,-0.32,-0.197,0.261,-0.183,1.041,9.749,-0.0495,0.089375,0.049775,0.047766,-0.025162,-0.612578,0.788563,0
3961,-0.147,1.11405,9.1699505,0.044,0.055,-0.582,-0.18,1.047,9.748,0.034649998,-0.0726,0.029424999,0.048047,-0.025724,-0.612163,0.78885,0
4002,-0.41295,1.1040001,9.927,-0.207,0.069,0.097,-0.187,1.033,9.75,-0.1571625,0.123475,0.032725,0.047499,-0.024621,-0.612053,0.789004,0
4041,-0.20700002,1.11405,10.273951,0.019,0.105,0.516,-0.223,0.998,9.753,0.006875,-0.0064625,0.0763125,0.047288,-0.02218,-0.611356,0.789629,0
4081,-0.15,1.164,9.9529505,0.048,0.144,0.19,-0.198,1.013,9.752,-0.0367125,0.020075,0.0284625,0.047106,-0.023646,-0.611123,0.789778,0
4121,-0.19995001,1.11195,10.2310505,0.041,0.115,0.489,-0.218,1.001,9.752,0.006875,0.0413875,0.0774125,0.047296,-0.022388,-0.610333,0.790414,0
4161,0.04605,1.1719501,9.73305,0.242,0.141,-0.039,-0.187,1.03,9.75,0.042075,-0.027775,0.029424999,0.047528,-0.024603,-0.609405,0.79105,0
4202,-0.246,1.12395,9.7879505,-0.051,0.066,0.031,-0.193,1.05,9.748,0.0697125,0.0265375,0.00715,0.048522,-0.024932,-0.609472,0.790927,0
4241,-0.13995,1.04205,9.331051,0.039,-0.046,-0.415,-0.176,1.081,9.745,0.039875,-0.05555,-0.013062499,0.049225,-0.026592,-0.609538,0.790779,0
4281,-0.42495003,1.00905,10.02705,-0.242,-0.055,0.277,-0.178,1.065,9.747,-0.06655,0.055275,-0.0334125,0.048604,-0.025931,-0.609963,0.790512,0
4321,-0.291,1.03695,9.795,-0.112,-0.048,0.086,-0.186,1.056,9.747,0.0548625,-0.0991375,0.0114125,0.048556,-0.025376,-0.609997,0.790507,0
4361,-0.31005,1.07805,9.89295,-0.132,0.009,0.141,-0.167,1.066,9.747,-0.026124999,0.064899996,-0.036575,0.048323,-0.026499,-0.609983,0.790495,0
4401,-0.35595003,1.03995,9.814051,-0.154,-0.036,0.06,-0.199,1.071,9.745,0.0900625,-0.0405625,0.0081125,0.049532,-0.025344,-0.60999,0.790452,0
4442,-0.27405003,1.059,9.369,-0.1,-0.046,-0.386,-0.171,1.095,9.743,-0.0133375,0.0020625,-0.0334125,0.049637,-0.027256,-0.610113,0.790288,0
4481,-0.39195,0.915,10.07505,-0.172,-0.155,0.319,-0.208,1.068,9.746,-0.0314875,0.08195,0.022,0.04968,-0.024929,-0.610603,0.789983,0
4521,-0.09,1.15005,9.558001,0.12,0.053,-0.21,-0.202,1.076,9.745,0.0059125,-0.0609125,0.00715,0.049835,-0.025445,-0.610348,0.790154,0
4561,-0.41805002,1.0570501,10.188001,-0.203,-0.011,0.44,-0.204,1.059,9.747,-0.0367125,0.04675,0.0103125,0.049231,-0.0248,-0.610309,0.790242,0
4601,-0.022950001,1.179,9.490951,0.186,0.095,-0.265,-0.199,1.076,9.745,0.059125,-0.031075,0.0092125,0.04974,-0.025508,-0.610063,0.790378,0
4641,-0.363,1.03695,10.02,-0.167,-0.042,0.265,-0.186,1.078,9.745,-0.044275,0.01265,-0.0215875,0.049356,-0.026095,-0.610367,0.790148,0
4682,-0.025050001,1.2030001,9.40695,0.16,0.105,-0.345,-0.174,1.092,9.744,0.0793375,-0.05335,-0.011,0.049612,-0.027064,-0.610204,0.790225,0
4721,-0.39900002,1.0690501,9.838051,-0.239,-0.036,0.09,-0.155,1.099,9.743,-0.078375,-0.0416625,-0.0738375,0.049154,-0.028068,-0.611094,0.78953,0
4761,-0.25500003,0.98205006,9.89295,-0.086,-0.091,0.141,-0.158,1.071,9.746,-0.0165,-0.027775,-0.020624999,0.04823,-0.027132,-0.611873,0.789017,0
4801,-0.38895002,0.95100003,10.21695,-0.234,-0.116,0.466,-0.147,1.056,9.748,-0.0059125,-0.0033,-0.0471625,0.047183,-0.027162,-0.612807,0.788354,0
4841,-0.34395,1.03995,9.699,-0.18,-0.035,-0.049,-0.162,1.071,9.746,0.0900625,-0.056649998,0.031625,0.048269,-0.027094,-0.613443,0.787796,0
4882,-0.20700002,1.095,9.786,-0.032,0.034,-0.007,-0.144,1.082,9.745,-0.060225,0.0658625,-0.014162499,0.048118,-0.02806,-0.613239,0.78793,0
4921,-0.279,1.08105,10.08495,-0.103,0.006,0.332,-0.169,1.069,9.746,0.058025,-0.044825,0.00495,0.048428,-0.026816,-0.613274,0.787927,0
4961,-0.18105,1.0900501,9.45495,-0.006,-0.018,-0.29,-0.143,1.109,9.742,0.0708125,0.003025,-0.0312125,0.049167,-0.029054,-0.613766,0.787419,0
5001,-0.26700002,1.095,9.77595,-0.14,-0.022,0.037,-0.159,1.112,9.742,0.0143,-0.0149875,0.015675,0.049809,-0.028543,-0.613976,0.787233,0
5041,-0.162,1.15005,9.4480505,-0.009,0.021,-0.302,-0.141,1.122,9.741,-0.0218625,-0.012925,-0.0248875,0.049627,-0.029592,-0.613915,0.787254,0
5082,-0.411,1.0570501,9.798,-0.255,-0.046,0.048,-0.152,1.095,9.744,-0.0836,-0.02035,0.0242,0.048896,-0.028276,-0.614305,0.787043,0
5121,-0.20505,1.0830001,9.976951,-0.073,-0.012,0.237,-0.144,1.074,9.746,-0.03575,-0.029975,0.0347875,0.047798,-0.027931,-0.613829,0.787495,0
5161,-0.279,1.1020501,9.970051,-0.15,0.007,0.236,-0.135,1.068,9.747,0.0154,-0.0160875,0.0422125,0.047293,-0.028074,-0.613321,0.787915,0
5201,-0.043950003,1.15995,9.58695,0.087,0.069,-0.17,-0.128,1.088,9.745,0.03135,-0.0246125,0.0262625,0.047908,-0.028898,-0.612535,0.78846,0
5241,-0.26205,1.0180501,10.04205,-0.131,-0.07,0.291,-0.126,1.078,9.746,-0.043175,0.07865,-0.036575,0.047484,-0.028673,-0.612413,0.788589,0
5282,-0.23805001,1.059,9.972,-0.07,-0.025,0.223,-0.161,1.074,9.746,0.03355,0.0232375,0.0188375,0.048381,-0.027132,-0.612385,0.78861,0
5321,-0.19995001,1.059,9.670951,-0.036,-0.044,-0.073,-0.153,1.093,9.744,0.0836,0.0180125,0.012375,0.048923,-0.028036,-0.612326,0.788591,0
5361,-0.11895001,1.1520001,9.288,0.047,0.023,-0.465,-0.156,1.12,9.741,0.0111375,-0.02145,0.014575,0.050117,-0.028751,-0.611791,0.788906,0
5401,-0.18795002,1.07595,9.975,-0.034,-0.033,0.227,-0.142,1.109,9.742,-0.03575,0.01265,-0.017324999,0.049226,-0.028954,-0.611674,0.789045,0
5442,-0.25005,1.107,9.76395,-0.103,-0.006,0.009,-0.141,1.109,9.742,0.0270875,-0.061875,0.012375,0.049203,-0.029027,-0.612012,0.788782,0
5481,-0.28395,1.14495,9.76605,-0.144,0.033,0.023,-0.128,1.11,9.742,-0.0528,0.01155,0.015675,0.048831,-0.029599,-0.612046,0.788757,0
5521,-0.06795,1.12605,9.8550005,0.062,0.022,0.102,-0.13,1.093,9.744,-0.034649998,-0.0342375,0.0251625,0.04818,-0.028979,-0.611712,0.789079,0
5561,-0.20505,1.0830001,10.05105,-0.078,-0.011,0.306,-0.125,1.087,9.745,0.0048125,0.04455,-0.0121,0.047873,-0.028922,-0.611725,0.789089,0
5602,-0.19095,1.15005,9.948001,-0.059,0.034,0.212,-0.13,1.096,9.744,0.0367125,-0.012925,0.012375,0.048339,-0.02901,-0.61153,0.789209,0
5641,-0.303,1.18095,9.679951,-0.16,0.057,-0.071,-0.138,1.114,9.742,0.03355,0.045649998,6.88E-04,0.049311,-0.029245,-0.611446,0.789206,0
5681,-0.18795002,1.16205,9.59895,-0.025,0.028,-0.151,-0.151,1.128,9.74,0.0037125,0.036025,-0.0099,0.050333,-0.029182,-0.611632,0.788999,0
5721,-0.25305,1.1550001,9.835951,-0.092,0.013,0.107,-0.166,1.13,9.739,0.0048125,-0.011825,0.0188375,0.050904,-0.028618,-0.611851,0.788813,0
5761,-0.16395001,1.18305,9.522,-0.007,0.027,-0.217,-0.155,1.144,9.738,0.00165,0.0072875,-0.0088,0.051038,-0.029549,-0.611962,0.788684,0
5801,-0.27705002,1.09695,9.799951,-0.102,-0.039,0.053,-0.17,1.128,9.74,-0.0485375,0.038225,0.0177375,0.050864,-0.028514,-0.612178,0.788566,0
5841,0.01695,1.116,9.967951,0.168,-0.002,0.215,-0.155,1.119,9.741,-0.0037125,-0.0427625,0.0028875,0.05002,-0.028766,-0.611779,0.78892,0
5882,-0.23400001,1.143,9.66405,-0.093,0.002,-0.083,-0.137,1.127,9.74,0.0389125,-0.0320375,-0.0226875,0.049818,-0.029759,-0.611989,0.788734,0
5921,-0.22905001,1.0639501,9.702001,-0.079,-0.051,-0.07,-0.139,1.126,9.74,-0.0506,0.0350625,-0.0099,0.049783,-0.029662,-0.612324,0.788479,0
5961,-0.31305,1.047,10.05405,-0.143,-0.065,0.308,-0.156,1.1,9.743,-0.0463375,0.01375,-0.017324999,0.049278,-0.02817,-0.612605,0.788347,0
6001,-0.29805002,1.0900501,9.74505,-0.123,-0.009,-0.004,-0.162,1.099,9.743,0.0517,-0.010725,0.0039875,0.049392,-0.02791,-0.612751,0.788236,0
6041,-0.25800002,1.18305,9.594001,-0.078,0.057,-0.152,-0.166,1.114,9.741,-0.03355,0.0083875,-0.014162499,0.050135,-0.028227,-0.612962,0.788014,0
6082,-0.35805002,1.08105,10.102051,-0.18,-0.018,0.348,-0.173,1.094,9.743,-0.0314875,-0.0268125,-2.75E-04,0.049539,-0.027346,-0.613446,0.787706,0
6121,-0.19995001,1.107,9.74295,-0.021,0.005,-0.005,-0.169,1.097,9.743,0.025024999,0.0158125,-0.003575,0.049548,-0.027607,-0.613306,0.787805,0
6161,-0.40800002,1.08105,10.059,-0.221,-0.015,0.307,-0.187,1.091,9.743,-0.0165,0.055275,0.022,0.049863,-0.026701,-0.613262,0.787851,0
6201,-0.006,1.131,9.640051,0.19,0.021,-0.112,-0.19,1.108,9.741,0.0804375,-0.0320375,0.0336875,0.050707,-0.027173,-0.61273,0.788195,0
6241,-0.28605002,1.1689501,9.675,-0.108,0.031,-0.069,-0.177,1.125,9.74,-0.025024999,0.0627,-0.019524999,0.050968,-0.028135,-0.612969,0.787958,0
6281,-0.135,1.14795,9.82905,0.072,0.021,0.08,-0.194,1.122,9.74,0.026124999,-0.0363,0.0188375,0.051352,-0.02735,-0.613059,0.787891,0
6321,-0.291,1.095,9.517051,-0.117,-0.046,-0.232,-0.168,1.136,9.739,-5.50E-04,-0.0396,-0.0323125,0.051093,-0.028863,-0.613339,0.787636,0
6361,-0.25995,1.0159501,10.108951,-0.085,-0.105,0.351,-0.173,1.112,9.741,-0.0463375,0.01375,0.0028875,0.050243,-0.027918,-0.613572,0.787543,0
6401,-0.13995,1.095,9.843,0.03,-0.019,0.091,-0.166,1.108,9.742,0.056925,-0.0097625,-0.0056375,0.049936,-0.02813,-0.613528,0.787589,0
6441,-0.25800002,1.15995,9.634951,-0.078,0.031,-0.11,-0.166,1.126,9.74,0.0059125,0.0020625,-0.020624999,0.050627,-0.028647,-0.61365,0.787432,0
6482,-0.14295001,1.1380501,9.75405,-0.004,-0.006,0.024,-0.159,1.122,9.74,-0.0281875,-0.011825,-0.0301125,0.050229,-0.02885,-0.613888,0.787264,0
6521,-0.32700002,1.10895,9.92205,-0.15,-0.011,0.173,-0.162,1.114,9.741,-0.0048125,-0.0055,-0.0419375,0.049988,-0.02849,-0.614397,0.786896,0
6561,-0.35295,1.11405,9.73305,-0.173,-0.013,-0.016,-0.166,1.117,9.741,0.022824999,-0.0033,-0.017324999,0.050209,-0.028456,-0.614881,0.786504,0
6601,-0.28395,1.11405,9.89805,-0.099,0.011,0.133,-0.175,1.117,9.741,-0.025024999,0.0158125,-0.011,0.050494,-0.028098,-0.61521,0.786242,0
6641,-0.32205,1.15995,9.75,-0.115,0.039,0.011,-0.184,1.118,9.74,0.0303875,9.63E-04,-0.0056375,0.050783,-0.027809,-0.61539,0.786092,0
6682,-0.26700002,1.1520001,9.82905,-0.068,0.022,0.079,-0.189,1.121,9.74,-0.0517,0.037125,-0.003575,0.051081,-0.027658,-0.615179,0.786243,0
6721,-0.23400001,1.1520001,9.817051,-0.015,0.043,0.12,-0.202,1.114,9.741,0.0303875,0.01265,-0.0067375,0.051196,-0.026943,-0.615123,0.786304,0
6761,-0.48000002,1.095,9.58695,-0.278,-0.038,-0.164,-0.198,1.128,9.739,-0.0176,-0.0171875,-0.0301125,0.051606,-0.027552,-0.615558,0.785916,0
6801,-0.27405003,1.0350001,10.02495,-0.06,-0.074,0.283,-0.211,1.108,9.741,-0.0133375,0.0105875,0.032725,0.051263,-0.026375,-0.615237,0.786231,0
6841,-0.21900001,1.11405,9.667951,-0.007,-0.012,-0.083,-0.21,1.115,9.74,0.0303875,0.0317625,-0.002475,0.051497,-0.026617,-0.614827,0.786528,0
6881,-0.30795002,1.12605,9.649051,-0.077,0.001,-0.097,-0.222,1.115,9.74,-0.0378125,0.01485,0.015675,0.051886,-0.026119,-0.614695,0.786622,0
6922,-0.34095,1.07595,9.84105,-0.111,-0.024,0.091,-0.229,1.1,9.742,-0.006875,0.0328625,0.0199375,0.051493,-0.025365,-0.614403,0.786901,0
6961,-0.384,1.22895,9.4480505,-0.145,0.115,-0.301,-0.236,1.11,9.74,-0.0218625,-0.065175,0.0336875,0.052117,-0.025378,-0.614219,0.787002,0
7001,-0.423,1.1400001,10.011001,-0.202,0.039,0.267,-0.219,1.09,9.743,-0.0878625,-0.0576125,0.0336875,0.050829,-0.025408,-0.613951,0.787295,0
7041,-0.040050004,1.059,10.08195,0.157,-0.022,0.332,-0.184,1.071,9.746,-0.0176,-0.0427625,0.047575,0.048979,-0.026164,-0.613276,0.787914,0
7081,-0.13305001,1.107,10.2289505,0.044,0.035,0.481,-0.167,1.067,9.746,0.0122375,-0.0171875,0.0209,0.048267,-0.026706,-0.612792,0.788316,0
7122,-0.054,1.16205,9.58395,0.124,0.052,-0.142,-0.152,1.091,9.744,0.0867625,-0.0075625,0.0092125,0.048806,-0.028057,-0.612307,0.788612,0
7161,-0.13995,1.1190001,9.606001,0.011,0.003,-0.139,-0.147,1.113,9.742,-0.0133375,0.0680625,-0.034375,0.049545,-0.028855,-0.612173,0.788642,0
7201,-0.30795002,1.12605,9.642,-0.125,0.005,-0.112,-0.174,1.111,9.741,0.0111375,-0.012925,-0.018424999,0.050273,-0.027816,-0.612368,0.788481,0
7241,-0.21405001,1.0350001,9.61095,-0.039,-0.078,-0.139,-0.164,1.113,9.741,-0.0111375,0.0191125,-0.0334125,0.050075,-0.028272,-0.612654,0.788256,0
7281,-0.31995,1.03995,10.000951,-0.134,-0.058,0.253,-0.178,1.093,9.743,-0.075075,-0.0086625,-0.013062499,0.049614,-0.027051,-0.613151,0.787941,0
7322,-0.46605003,1.0330501,9.99195,-0.271,-0.05,0.278,-0.191,1.072,9.745,0.03355,0.006325,0.015675,0.049261,-0.025898,-0.61339,0.787816,0
7361,-0.171,1.1359501,9.673051,0.036,0.05,-0.127,-0.186,1.093,9.743,0.0143,-0.011825,0.0284625,0.049931,-0.026776,-0.612974,0.788068,0
7401,-0.34605002,1.15005,9.74505,-0.165,0.05,0.008,-0.188,1.092,9.743,-0.025024999,0.01485,0.0081125,0.049973,-0.026656,-0.612692,0.788289,0
7441,-0.19095,1.0330501,9.879001,-0.023,-0.053,0.116,-0.18,1.089,9.744,-0.0048125,-0.02255,-0.0045375,0.049545,-0.026874,-0.612781,0.788239,0
7482,-0.35295,1.08105,9.903001,-0.148,-0.004,0.156,-0.191,1.08,9.745,-0.027224999,0.039325,0.00715,0.049549,-0.026134,-0.612921,0.788155,0
7521,-0.29805002,1.03005,9.844951,-0.058,-0.03,0.102,-0.2,1.078,9.745,0.043175,-0.0160875,0.032725,0.049779,-0.025716,-0.612401,0.788559,0
7561,-0.052050002,1.0570501,9.55605,0.139,-0.05,-0.195,-0.18,1.099,9.743,0.0196625,-0.0022,-0.003575,0.050019,-0.0271,-0.61169,0.789048,0
7601,-0.15705001,0.94605005,9.832951,-0.005,-0.132,0.089,-0.185,1.085,9.744,0.00165,0.064899996,-0.0121,0.049638,-0.026465,-0.61152,0.789226,0
7641,-0.27195,1.02795,9.43395,-0.047,-0.054,-0.305,-0.197,1.089,9.743,0.00165,0.020075,-0.0397375,0.050154,-0.02612,-0.611747,0.789029,0
7681,-0.38895002,0.99705005,9.798,-0.159,-0.068,0.046,-0.222,1.063,9.746,-0.0952875,0.0402875,-0.0067375,0.049843,-0.024322,-0.612199,0.788755,0
7722,-0.40605003,1.059,9.963,-0.153,0.017,0.207,-0.241,1.031,9.749,-0.0485375,0.073425,0.00495,0.049155,-0.022552,-0.612503,0.788615,0
7761,-0.34395,1.18605,9.70695,-0.075,0.159,-0.051,-0.264,1.025,9.749,-0.025024999,9.63E-04,0.0455125,0.049648,-0.021437,-0.612385,0.788707,0
7801,-0.31005,1.21695,9.70905,-0.044,0.188,-0.052,-0.254,1.024,9.749,-0.0463375,-0.01925,0.0177375,0.049297,-0.021761,-0.611923,0.789079,0
7841,-0.27405003,1.143,9.91005,-0.027,0.116,0.15,-0.245,1.013,9.751,-0.0793375,-0.028875,0.0092125,0.048574,-0.021804,-0.611786,0.789229,0
7881,-0.27195,0.95100003,10.33605,-0.035,-0.046,0.57,-0.236,0.986,9.754,-0.0165,0.01265,-0.002475,0.047176,-0.021287,-0.611742,0.789361,0
7921,-0.34095,1.02795,9.679951,-0.107,0.018,-0.081,-0.233,1.003,9.752,0.0611875,-0.0097625,-0.014162499,0.047812,-0.022019,-0.611752,0.789295,0
7962,-0.38700002,1.0020001,10.00605,-0.139,-0.009,0.191,-0.255,1.004,9.751,-0.0495,0.099,-2.75E-04,0.048533,-0.021074,-0.611535,0.789445,0
8001,-0.37005,1.0350001,9.856951,-0.081,0.033,0.096,-0.285,1.001,9.751,0.0622875,0.01155,-0.0056375,0.049379,-0.019774,-0.611319,0.789594,0
8041,-0.36495003,1.07295,9.66405,-0.069,0.038,-0.092,-0.284,1.024,9.748,0.0122375,0.01485,6.88E-04,0.050238,-0.020556,-0.611499,0.78938,0
8081,-0.109050006,1.03995,9.628051,0.158,-0.015,-0.104,-0.281,1.036,9.747,0.0644875,-0.05335,0.0114125,0.05066,-0.021167,-0.611445,0.789379,0
8121,-0.38205,0.93000007,9.786,-0.095,-0.093,0.004,-0.244,1.047,9.747,-0.034649998,-0.0160875,-0.0567875,0.049871,-0.022902,-0.612125,0.788853,0
8162,-0.45900002,0.78105,10.159051,-0.257,-0.249,0.397,-0.259,1.026,9.749,0.043175,0.0072875,0.0242,0.049557,-0.021695,-0.612429,0.788672,0
8201,-0.231,0.9580501,9.405001,0.016,-0.088,-0.349,-0.247,1.042,9.747,0.0484,-0.044825,6.88E-04,0.049804,-0.02262,-0.611952,0.789,0
8241,-0.53805,0.85800004,10.056001,-0.275,-0.165,0.302,-0.255,1.023,9.749,-0.0506,0.0521125,0.0081125,0.049292,-0.021723,-0.612002,0.789019,0
8281,-0.23400001,1.02795,9.56505,0.024,-0.017,-0.133,-0.269,1.025,9.749,0.077275,-0.02145,0.0529375,0.049843,-0.021245,-0.611355,0.789498,0
8322,-0.31995,1.0180501,9.702001,-0.032,-0.017,-0.091,-0.253,1.038,9.748,-0.0622875,0.0521125,-0.014162499,0.049852,-0.022135,-0.611071,0.789693,0
8361,-0.50205004,1.02495,10.20705,-0.238,0.01,0.492,-0.292,1.011,9.749,-0.0059125,0.0691625,0.048675,0.050134,-0.019504,-0.610979,0.789816,0
8401,-0.19095,1.1020501,9.8220005,0.11,0.055,0.072,-0.301,1.033,9.747,0.0644875,-0.0149875,0.0177375,0.051192,-0.02008,-0.610374,0.790201,0
8441,-0.44700003,1.11195,9.70695,-0.142,0.043,-0.047,-0.293,1.059,9.744,0.06765,9.63E-04,-0.0163625,0.05198,-0.02123,-0.610507,0.790017,0
8481,-0.24795002,1.08105,9.45495,0.032,-0.006,-0.29,-0.278,1.082,9.742,0.0185625,-0.0715,-0.011,0.05244,-0.022592,-0.610617,0.789864,0
8522,-0.32895002,1.0639501,9.807,-0.066,-0.012,0.062,-0.26,1.074,9.744,-0.042075,-0.0086625,-0.0301125,0.051549,-0.023087,-0.611145,0.7895,0
8561,-0.363,1.0849501,9.72105,-0.093,0.013,-0.034,-0.26,1.062,9.745,-0.0187,-0.031075,-0.0226875,0.051033,-0.022716,-0.611427,0.789326,0
8601,-0.432,1.0489501,9.817051,-0.173,-0.002,0.059,-0.248,1.051,9.746,-0.0495,-0.0598125,-0.034375,0.050203,-0.022877,-0.611905,0.789004,0
8641,-0.18795002,1.0180501,9.946051,0.066,-0.027,0.194,-0.243,1.035,9.748,0.00165,0.0402875,0.00605,0.049397,-0.022569,-0.611915,0.789056,0
8681,-0.291,1.116,9.55095,-0.038,0.071,-0.199,-0.247,1.045,9.747,-0.006875,-0.011825,-0.0429,0.049924,-0.022717,-0.611809,0.789101,0
8721,-0.49905002,1.07295,9.57495,-0.235,0.023,-0.173,-0.255,1.038,9.748,-0.06875,0.005225,-0.0301125,0.049854,-0.022171,-0.612428,0.788641,0
8762,-0.37995002,0.9580501,9.946051,-0.102,-0.049,0.164,-0.265,1.003,9.751,-0.0974875,0.0105875,-0.011,0.048773,-0.020719,-0.612439,0.788738,0
8801,-0.55695003,0.93405,10.1970005,-0.27,-0.045,0.433,-0.274,0.971,9.754,-0.025024999,-0.011825,0.0092125,0.047735,-0.019345,-0.61256,0.788743,0
8841,-0.33195,1.0519501,9.759001,-0.053,0.07,-0.001,-0.273,0.978,9.753,0.034649998,-0.0257125,0.0518375,0.04802,-0.01961,-0.612604,0.788685,0
8881,-0.15,1.1020501,9.75405,0.11,0.103,-0.001,-0.26,0.985,9.753,-0.023924999,9.63E-04,0.0347875,0.047887,-0.020599,-0.612307,0.788899,0
8921,-0.24795002,1.047,9.7900505,0.006,0.062,0.025,-0.251,0.986,9.753,-0.00165,-0.0149875,-0.019524999,0.047662,-0.02074,-0.612117,0.789056,0
8962,-0.46605003,0.93705004,9.84105,-0.203,-0.058,0.052,-0.246,0.984,9.754,-0.0176,-0.01925,-0.014162499,0.047395,-0.020907,-0.612727,0.788594,0
9001,-0.27705002,0.85095006,10.003051,-0.03,-0.1,0.228,-0.242,0.972,9.755,0.00165,-0.02255,0.015675,0.046765,-0.020699,-0.612937,0.788474,0
9041,-0.50205004,1.00905,9.823951,-0.255,0.026,0.065,-0.236,0.98,9.754,0.0537625,-0.044825,0.0092125,0.046932,-0.021271,-0.612807,0.78855,0
9081,-0.37695003,1.00605,9.489,-0.143,-0.023,-0.286,-0.223,1.004,9.752,0.0389125,-0.098175,0.0336875,0.047503,-0.022513,-0.612216,0.788941,0
9121,-0.27195,0.97305006,9.984,-0.046,-0.042,0.189,-0.213,0.994,9.753,-0.0708125,0.0743875,0.0347875,0.046798,-0.022483,-0.6115,0.789538,0
9162,-0.24795002,1.011,9.913051,-0.014,0.023,0.147,-0.23,0.984,9.754,0.0218625,0.01485,-0.0045375,0.046956,-0.021458,-0.611253,0.789749,0
9201,-0.33405003,0.90300006,9.835951,-0.091,-0.093,0.08,-0.235,0.992,9.753,0.0026125,0.0254375,-0.0088,0.047396,-0.021551,-0.611732,0.789349,0
9241,-0.21195,0.94200003,9.8550005,0.054,-0.044,0.093,-0.258,0.984,9.753,0.009075,0.1021625,0.013475,0.047823,-0.020329,-0.611652,0.789418,0
9281,-0.37695003,1.04205,9.55095,-0.089,0.038,-0.204,-0.278,0.996,9.751,0.0452375,-0.02255,0.013475,0.04894,-0.019938,-0.611357,0.789588,0
9321,-0.18795002,0.99405,9.474,0.074,-0.012,-0.285,-0.251,1.006,9.751,-0.0485375,-0.0342375,0.03795,0.0485,-0.021272,-0.610873,0.789955,0
9362,-0.21000001,1.00905,10.078051,0.034,0.03,0.31,-0.238,0.977,9.754,-0.0537625,-0.0268125,0.046475,0.046899,-0.020839,-0.610127,0.790639,0
9401,-0.21405001,1.023,9.622951,0.008,0.034,-0.138,-0.212,0.986,9.754,0.056925,-0.064075,-0.001375,0.046515,-0.022179,-0.609866,0.790826,0
9441,-0.38205,1.0159501,9.85305,-0.189,0.019,0.092,-0.192,0.988,9.754,-0.059125,-0.061875,0.012375,0.045948,-0.02307,-0.610107,0.790648,0
9481,-0.31995,0.91800004,10.22595,-0.135,-0.052,0.457,-0.177,0.964,9.757,-0.040975,-0.0160875,0.0039875,0.044528,-0.022894,-0.610003,0.790815,0
9521,-0.21195,1.014,9.976951,-0.034,0.04,0.212,-0.17,0.967,9.757,0.0952875,-0.0427625,0.0540375,0.044458,-0.023367,-0.609726,0.791018,0
9562,-0.04695,1.14495,9.28005,0.102,0.135,-0.478,-0.143,1.008,9.753,-0.0037125,-0.01925,-0.017324999,0.045254,-0.025642,-0.609291,0.791238,0
9601,-0.32505003,0.93195003,10.1970005,-0.161,-0.057,0.432,-0.152,0.981,9.756,-0.0826375,0.0297,-0.0248875,0.0445,-0.024519,-0.609464,0.791183,0
9641,-0.17595,0.9799501,9.832951,-0.004,-0.004,0.076,-0.158,0.971,9.757,0.0122375,0.0243375,-0.0163625,0.044264,-0.023858,-0.609527,0.791168,0
9681,-0.37995002,0.96300006,9.802051,-0.191,-0.02,0.05,-0.175,0.974,9.756,-0.0048125,0.0265375,-0.0312125,0.044857,-0.023275,-0.61023,0.79061,0
9721,-0.32700002,0.91800004,9.687,-0.136,-0.061,-0.072,-0.189,0.973,9.756,0.0111375,0.0254375,0.0039875,0.045287,-0.022722,-0.610529,0.790371,0
9761,-0.231,0.95595,9.7879505,-0.039,-0.022,0.023,-0.191,0.976,9.756,0.009075,-0.0374,0.012375,0.045432,-0.022664,-0.610304,0.790537,0
9801,-0.279,0.92295,9.72795,-0.102,-0.067,-0.031,-0.168,0.98,9.756,0.0059125,-0.0726,0.00495,0.044864,-0.023792,-0.610242,0.790585,0
9841,-0.31695002,1.00905,9.9529505,-0.135,0.033,0.213,-0.164,0.973,9.756,-0.0144375,0.005225,0.0422125,0.044486,-0.023714,-0.609728,0.791005,0
9882,-0.018000001,1.0900501,9.769051,0.145,0.09,-0.003,-0.145,0.985,9.755,0.0537625,-0.0512875,0.0177375,0.044405,-0.024874,-0.609105,0.791453,0
9921,-0.30495003,1.011,9.58695,-0.161,0.002,-0.178,-0.137,1.005,9.754,5.50E-04,0.0328625,-0.02695,0.04496,-0.025743,-0.609445,0.791133,0
9961,-0.24795002,1.0020001,10.05405,-0.094,0.001,0.296,-0.15,0.992,9.755,-0.0528,-0.0182875,0.0114125,0.044833,-0.024838,-0.609574,0.79107,0
10001,-0.32895002,0.94605005,9.9199505,-0.15,-0.048,0.2,-0.149,0.988,9.755,0.0622875,-0.02145,-0.0088,0.044648,-0.024751,-0.609081,0.791463,0
10041,-0.162,1.0710001,9.57495,-0.007,0.051,-0.178,-0.142,1.01,9.753,0.0143,0.0265375,0.0188375,0.045377,-0.025687,-0.608509,0.791831,0
10081,-0.25005,1.0020001,9.90795,-0.09,-0.012,0.148,-0.154,1.006,9.753,-0.034649998,-0.0086625,-0.011,0.045556,-0.025037,-0.608438,0.791896,0
10121,-0.32895002,1.00395,9.691951,-0.17,-0.008,-0.069,-0.156,1.003,9.753,0.0122375,0.022275,-0.0078375,0.045473,-0.02487,-0.608723,0.791687,0
10161,-0.094950005,0.97800004,9.915001,0.081,-0.032,0.147,-0.162,0.999,9.754,-0.025024999,0.0094875,0.012375,0.045524,-0.024503,-0.608651,0.791751,0
10201,-0.31500003,0.95595,9.807,-0.145,-0.038,0.051,-0.167,0.991,9.754,-0.0037125,0.037125,-0.0215875,0.045351,-0.024103,-0.60899,0.791512,0
10242,-0.23400001,0.915,9.92895,-0.048,-0.077,0.174,-0.182,0.99,9.754,0.0185625,0.0265375,0.0103125,0.045746,-0.023438,-0.609052,0.791462,0
10281,-0.246,1.0330501,9.541051,-0.059,0.018,-0.219,-0.186,1.003,9.753,0.025024999,-0.0022,0.0028875,0.046396,-0.023697,-0.608813,0.7916,0
10321,-0.26505002,1.03995,9.843,-0.065,0.034,0.08,-0.193,1,9.753,-0.0452375,0.0232375,0.0092125,0.04649,-0.023314,-0.608776,0.791635,0
10361,-0.16695,0.98700005,9.880951,0.028,-0.012,0.12,-0.191,0.993,9.754,0.0059125,-0.010725,0.0039875,0.046166,-0.023166,-0.608736,0.791689,0
10401,-0.25305,1.0180501,9.7879505,-0.059,0.011,0.025,-0.185,0.996,9.754,0.00165,0.0180125,-0.0056375,0.046114,-0.023514,-0.608712,0.7917,0
10441,-0.16905001,1.047,9.7900505,0.012,0.037,0.025,-0.19,0.997,9.753,-0.0111375,-0.0064625,-0.0099,0.046297,-0.023354,-0.608678,0.791721,0
10481,-0.303,0.96300006,9.87705,-0.107,-0.038,0.12,-0.191,0.991,9.754,-0.006875,0.0317625,-0.003575,0.046108,-0.023124,-0.609008,0.791484,0
10521,-0.15195,0.99000007,9.661051,0.044,-0.014,-0.097,-0.194,0.995,9.754,0.0133375,-0.0268125,-0.013062499,0.046307,-0.023155,-0.608983,0.791491,0
10561,-0.31500003,1.00905,9.661051,-0.121,0.014,-0.097,-0.191,0.993,9.754,-0.0367125,0.0191125,-0.02915,0.046148,-0.023158,-0.608998,0.791489,0
10601,-0.26505002,0.90300006,9.8890505,-0.064,-0.079,0.132,-0.193,0.977,9.755,-0.0281875,-0.0385,-0.02695,0.045579,-0.022616,-0.608986,0.791547,0
10642,-0.33195,0.91800004,9.901051,-0.131,-0.053,0.131,-0.194,0.965,9.757,0.00165,0.037125,-0.0067375,0.045135,-0.022178,-0.609137,0.791468,0
10681,-0.30795002,1.09695,9.502951,-0.094,0.125,-0.221,-0.205,0.977,9.755,0.006875,-0.027775,0.0242,0.045932,-0.022151,-0.608694,0.791764,0
10721,-0.29805002,1.03005,9.843,-0.098,0.049,0.077,-0.187,0.971,9.756,-0.0730125,-0.0268125,-0.0121,0.045179,-0.022627,-0.608272,0.792118,0
10761,-0.36495003,0.94200003,9.99195,-0.159,-0.012,0.225,-0.195,0.952,9.758,-0.0133375,0.006325,0.0209,0.044613,-0.0217,-0.608232,0.792207,0
10802,-0.31005,1.023,9.92895,-0.102,0.069,0.17,-0.197,0.951,9.758,0.0048125,0.021175,0.0166375,0.04469,-0.021586,-0.607969,0.792407,0
10841,-0.28395,1.0489501,9.68295,-0.072,0.093,-0.045,-0.213,0.968,9.756,0.043175,0.036025,0.0273625,0.045931,-0.021474,-0.60781,0.792461,0
10881,-0.21195,0.91305006,9.87705,0.012,-0.061,0.118,-0.216,0.973,9.755,-0.042075,0.0191125,-2.75E-04,0.046178,-0.021484,-0.607704,0.792528,0
10921,-0.51600003,0.855,10.279051,-0.26,-0.109,0.512,-0.243,0.954,9.757,0.040975,0.071225,0.0369875,0.046205,-0.019778,-0.607497,0.792729,0
10961,-0.30105,1.07805,9.1390505,-0.052,0.081,-0.613,-0.247,0.994,9.752,0.10285,-0.048125,0.0444125,0.047992,-0.020788,-0.606425,0.793418,0
11002,-0.483,0.9990001,9.843,-0.23,-0.005,0.081,-0.245,1,9.752,-0.109175,0.0072875,0.049775,0.048214,-0.02098,-0.605548,0.794069,0
11041,0.08595,0.93195003,10.39395,0.302,-0.045,0.636,-0.22,0.971,9.755,0.039875,-0.0501875,0.0763125,0.046296,-0.021043,-0.604539,0.79495,0
11081,-0.08805001,1.06095,9.66405,0.109,0.039,-0.095,-0.191,1.009,9.752,0.0633875,-0.010725,-0.0237875,0.046939,-0.023427,-0.604375,0.79497,0
11121,-0.17895001,0.93195003,9.963,0.024,-0.089,0.204,-0.201,1.015,9.751,0.022824999,0.106425,-0.02695,0.047493,-0.023201,-0.60458,0.794788,0
11162,-0.38700002,0.96105003,9.570001,-0.153,-0.082,-0.187,-0.228,1.035,9.749,0.0804375,0.0339625,-0.0812625,0.049129,-0.022766,-0.604947,0.794422,0
11201,-0.52995,0.9990001,9.319051,-0.257,-0.057,-0.43,-0.26,1.052,9.746,0.007975,0.037125,-0.0121,0.050781,-0.022013,-0.605332,0.794046,0
11241,-0.39405003,1.0350001,9.58695,-0.105,-0.007,-0.172,-0.276,1.042,9.747,-0.058025,0.0328625,0.0081125,0.050913,-0.021034,-0.604933,0.794368,0
11281,-0.31995,1.15005,9.70695,-0.022,0.116,-0.05,-0.29,1.027,9.748,-0.0400125,0.0020625,0.030524999,0.050684,-0.019954,-0.604611,0.794656,0
11322,-0.20505,1.15695,9.75,0.067,0.122,0.002,-0.258,1.021,9.749,-0.0474375,-0.0820875,0.0092125,0.049491,-0.021105,-0.604746,0.794598,0
11361,-0.066,1.2409501,9.8550005,0.192,0.204,0.124,-0.246,1.021,9.75,-0.032449998,0.0243375,-0.002475,0.049139,-0.021583,-0.605061,0.794367,0
11401,-0.34905002,0.91095006,9.975,-0.122,-0.106,0.217,-0.218,1.005,9.752,-0.075075,-0.05555,-0.11,0.047538,-0.022299,-0.606375,0.793442,0
11441,-0.648,0.93000007,10.1640005,-0.408,-0.037,0.433,-0.258,0.977,9.754,0.022824999,0.0968,0.015675,0.047694,-0.019822,-0.607832,0.792383,0
11482,-0.279,1.2390001,9.204,-0.01,0.198,-0.529,-0.261,1.013,9.75,0.0793375,-0.0917125,0.0369875,0.049192,-0.021028,-0.607752,0.792322,0
11521,-0.41295,1.1740501,9.738001,-0.152,0.152,-0.025,-0.255,1.019,9.75,-0.14973749,0.0499125,0.0422125,0.049423,-0.021142,-0.607609,0.792414,0
11561,-0.363,0.975,10.365001,-0.082,-0.008,0.61,-0.271,0.975,9.754,-0.0037125,-0.010725,0.07535,0.047962,-0.019274,-0.60697,0.793041,0
11601,-0.21705002,1.1359501,9.44295,0.019,0.108,-0.299,-0.234,1.009,9.751,0.0506,-0.1087625,0.080575,0.048235,-0.021739,-0.605989,0.793711,0
11641,-0.109050006,1.0999501,10.071,0.095,0.09,0.286,-0.217,1.012,9.751,-0.03355,0.038225,0.0699875,0.047874,-0.022447,-0.604903,0.794541,0
11682,-0.07305,0.93195003,9.89805,0.121,-0.098,0.137,-0.19,1.024,9.751,0.076175,-0.1013375,-0.015262499,0.047514,-0.023939,-0.604454,0.79486,0
11721,-0.492,0.82905006,9.814051,-0.303,-0.21,0.055,-0.186,1.027,9.75,0.009075,0.0573375,-0.0429,0.047539,-0.024202,-0.604983,0.794449,0
11761,-0.45900002,0.72900003,9.87705,-0.24,-0.293,0.123,-0.208,1.015,9.751,0.0196625,0.01155,-0.0323125,0.047709,-0.022958,-0.60538,0.794173,0
11801,-0.72195005,0.762,9.655951,-0.478,-0.259,-0.108,-0.243,1.008,9.751,0.0281875,9.63E-04,0.0209,0.048467,-0.021341,-0.605446,0.794122,0
11841,-0.36795002,0.87900007,9.74505,-0.116,-0.125,-0.014,-0.251,0.997,9.752,-0.040975,0.01375,0.0710875,0.048306,-0.020604,-0.604141,0.795145,0
11881,-0.32895002,0.87705004,9.996,-0.074,-0.103,0.228,-0.252,0.974,9.754,-0.00165,-0.0160875,0.064625,0.047426,-0.019808,-0.603195,0.795936,0
11921,-0.066,0.97305006,9.59595,0.173,-0.022,-0.165,-0.228,0.989,9.753,0.040975,-0.01925,0.0422125,0.047313,-0.021229,-0.602435,0.79648,0
11962,-0.33195,0.91800004,10.047001,-0.107,-0.075,0.283,-0.219,0.987,9.754,-0.025024999,-0.0160875,0.013475,0.046987,-0.021471,-0.602098,0.796749,0
12001,-0.19995001,0.85305005,9.783,0.002,-0.137,0.023,-0.193,0.981,9.755,0.03135,-0.05335,0.022,0.045952,-0.022339,-0.601969,0.796882,0
12041,-0.25500003,0.966,9.850051,-0.055,-0.033,0.092,-0.189,0.986,9.755,0.0281875,0.0105875,0.0262625,0.046044,-0.022559,-0.601616,0.797137,0
12081,-0.22905001,0.99705005,9.498,-0.034,0.006,-0.287,-0.169,1,9.753,-0.0026125,-0.056649998,-0.018424999,0.045974,-0.023913,-0.601623,0.797097,0
12121,-0.45900002,0.87000006,10.126051,-0.293,-0.114,0.378,-0.182,0.985,9.755,0.0037125,-0.0055,0.0188375,0.045778,-0.022901,-0.601964,0.79688,0
12161,-0.16905001,0.89400005,9.702001,-0.007,-0.12,-0.056,-0.155,1.005,9.753,0.1166,-0.1034,0.031625,0.04579,-0.024725,-0.601379,0.797266,0
12201,-0.32205,1.02795,9.74295,-0.181,-0.002,-0.013,-0.131,1.024,9.752,-0.03355,9.63E-04,0.0347875,0.045789,-0.026094,-0.600994,0.797513,0
12241,-0.15705001,1.0020001,10.10595,0.015,-0.005,0.312,-0.151,1.012,9.753,0.03355,0.0265375,0.039049998,0.045991,-0.024931,-0.60051,0.797903,0
12281,-0.20700002,1.0690501,9.61305,-0.07,0.024,-0.148,-0.134,1.037,9.75,0.034649998,-0.0235125,0.0039875,0.046448,-0.026397,-0.600521,0.797821,0
12321,-0.19995001,0.99705005,9.9529505,-0.063,-0.032,0.192,-0.141,1.04,9.75,0.009075,0.005225,0.0209,0.046799,-0.0262,-0.600412,0.797889,0
12362,-0.064050004,1.0210501,9.7570505,0.073,-0.04,0.002,-0.128,1.048,9.749,0.0537625,-0.02255,0.013475,0.046721,-0.026953,-0.600244,0.797996,0
12401,-0.064050004,1.0210501,9.7570505,0.073,-0.04,0.002,-0.128,1.048,9.749,0.0537625,-0.02255,0.013475,0.046721,-0.026953,-0.600244,0.797996,0
12441,0.01695,1.2,9.64395,0.132,0.116,-0.102,-0.124,1.078,9.746,0.042075,-0.05335,0.0199375,0.047866,-0.028314,-0.599404,0.798511,0
12481,-0.15705001,1.1719501,9.86205,-0.043,0.081,0.115,-0.106,1.089,9.745,-0.032449998,0.020075,0.00495,0.047766,-0.029058,-0.599076,0.798737,0
12521,-0.08505,1.167,9.679951,0.022,0.064,-0.074,-0.103,1.093,9.744,0.0367125,-0.02145,0.0081125,0.047871,-0.029249,-0.598765,0.798957,0
12562,-0.22395001,1.10895,9.807,-0.104,0.002,0.021,-0.085,1.1,9.744,-0.0452375,-0.0246125,-0.0045375,0.04756,-0.030232,-0.599001,0.798762,0
12601,-0.13095,1.1329501,9.94095,-0.028,0.038,0.184,-0.093,1.092,9.745,0.0548625,-0.0268125,0.030524999,0.047484,-0.029647,-0.59929,0.798571,0
12641,-0.15900001,1.116,9.493951,-0.081,0,-0.249,-0.068,1.116,9.742,-0.010175,-0.012925,-0.035475,0.047681,-0.031474,-0.599645,0.798224,0
12681,-0.31005,1.0999501,9.783,-0.2,-0.014,0.035,-0.099,1.103,9.743,-0.0037125,0.04455,0.0284625,0.0481,-0.029826,-0.599996,0.797998,0
12721,-0.01305,1.0690501,9.826051,0.064,-0.042,0.076,-0.078,1.104,9.743,-0.0495,-0.0609125,-0.017324999,0.04743,-0.030726,-0.599856,0.798109,0
12762,-0.24795002,1.02795,10.330951,-0.144,-0.058,0.591,-0.086,1.079,9.746,0.0111375,0.0510125,0.0273625,0.046768,-0.029548,-0.599584,0.798397,0
12801,-0.00405,1.1719501,9.405001,0.081,0.06,-0.345,-0.081,1.11,9.743,0.10285,-0.0385,0.012375,0.047875,-0.030703,-0.59905,0.798688,0
12841,-0.20205002,1.19295,9.55095,-0.103,0.055,-0.193,-0.086,1.129,9.741,-0.0633875,0.0573375,0.0017875,0.048787,-0.031067,-0.599136,0.798554,0
12881,-0.15900001,1.0210501,9.823951,-0.058,-0.1,0.076,-0.091,1.108,9.743,0.0026125,-0.0490875,0.0092125,0.048062,-0.030281,-0.599029,0.798709,0
12921,-0.15,1.1550001,9.814051,-0.065,0.039,0.062,-0.084,1.104,9.743,-0.0463375,0.01155,0.0199375,0.047729,-0.03038,-0.598806,0.798892,0
12961,-0.10395,1.107,10.116,-0.021,-0.002,0.401,-0.086,1.092,9.745,0.034649998,0.0265375,0.00495,0.047343,-0.02985,-0.598158,0.799421,0
13002,-0.19095,1.2049501,9.316051,-0.115,0.061,-0.425,-0.089,1.123,9.741,0.039875,-0.0086625,-0.019524999,0.04871,-0.030751,-0.597793,0.799577,0
13041,-0.123,1.116,9.94095,-0.031,0.002,0.186,-0.091,1.112,9.742,-0.0900625,0.01265,-0.013062499,0.048288,-0.030279,-0.597886,0.799551,0
13081,-0.006,1.0710001,10.00605,0.079,-0.03,0.293,-0.093,1.093,9.745,0.0292875,0.021175,-0.014162499,0.047549,-0.029623,-0.598245,0.799351,0
13121,-0.24300002,1.19295,9.498,-0.136,0.073,-0.249,-0.095,1.11,9.743,0.0143,-1.38E-04,-0.044,0.048307,-0.030171,-0.599022,0.798704,0
13161,-0.29595003,1.11195,9.817051,-0.171,-0.003,0.063,-0.114,1.106,9.743,-0.032449998,0.0328625,-0.013062499,0.048709,-0.029217,-0.599332,0.798482,0
13201,-0.135,1.07295,9.690001,-0.013,-0.041,-0.059,-0.109,1.103,9.743,-0.0048125,-0.0587125,-0.0215875,0.048437,-0.029336,-0.598983,0.798756,0
13242,-0.33900002,1.1020501,9.868951,-0.21,-0.003,0.116,-0.116,1.092,9.744,-0.0378125,0.0339625,-0.0056375,0.048194,-0.028765,-0.599361,0.798508,0
13281,-0.11595,1.059,9.8550005,0.01,-0.035,0.101,-0.119,1.084,9.745,-0.0154,-0.02035,-0.002475,0.047927,-0.028364,-0.599377,0.798526,0
13321,-0.28395,1.1380501,9.714001,-0.142,0.047,-0.034,-0.13,1.082,9.745,0.0122375,0.0435875,0.00715,0.048205,-0.027901,-0.599605,0.798355,0
13361,-0.052050002,1.1190001,9.655951,0.078,0.023,-0.101,-0.118,1.093,9.744,0.0059125,-0.05555,-0.015262499,0.048288,-0.028678,-0.599688,0.79826,0
13401,-0.40800002,1.0639501,9.939,-0.282,-0.019,0.183,-0.126,1.081,9.745,-0.059125,0.0510125,-0.0121,0.04802,-0.028059,-0.600227,0.797893,0
13441,-0.22395001,1.03995,9.970051,-0.075,-0.031,0.222,-0.142,1.066,9.747,0.0026125,0.005225,0.015675,0.0479,-0.026937,-0.600133,0.798009,0
13482,-0.26205,1.12395,9.70695,-0.111,0.046,-0.049,-0.147,1.069,9.746,-0.007975,0.0180125,0.0336875,0.048198,-0.026811,-0.599911,0.798163,0
13521,-0.042000003,1.0830001,9.984,0.101,0.014,0.235,-0.142,1.061,9.747,-0.034649998,0.01485,0.0231,0.047729,-0.026708,-0.599334,0.798627,0
13561,-0.27195,1.107,10.035001,-0.112,0.047,0.276,-0.159,1.056,9.748,0.009075,0.0606375,0.022,0.048037,-0.025832,-0.598914,0.798953,0
13601,0.02205,1.1880001,9.438001,0.169,0.104,-0.306,-0.156,1.08,9.745,0.0697125,-0.0044,0.014575,0.048979,-0.026729,-0.598449,0.799215,0
13641,-0.171,1.1359501,9.637051,-0.016,0.039,-0.115,-0.146,1.09,9.744,-0.0985875,0.0328625,-0.052525,0.049006,-0.027317,-0.598772,0.798951,0
13682,-0.291,0.99195004,10.126051,-0.15,-0.094,0.426,-0.163,1.061,9.747,0.0548625,-0.0044,-0.018424999,0.04834,-0.025867,-0.599437,0.798542,0
13721,-0.12105001,1.12605,9.156,0.034,0.02,-0.591,-0.143,1.096,9.744,0.023924999,-0.0235125,-0.02585,0.049163,-0.027828,-0.599796,0.798156,0
13761,-0.363,1.011,10.114051,-0.199,-0.057,0.358,-0.154,1.065,9.747,-0.1379125,0.0424875,-0.020624999,0.048147,-0.026268,-0.600156,0.798,0
13801,-0.19800001,1.0350001,9.823951,-0.042,-0.01,0.111,-0.161,1.046,9.749,0.0804375,-0.02255,-0.0045375,0.047667,-0.025556,-0.6003,0.797943,0
13841,-0.231,1.1520001,9.628051,-0.078,0.077,-0.131,-0.151,1.065,9.747,-0.06655,0.003025,-0.0248875,0.048214,-0.02653,-0.600862,0.797456,0
13882,-0.19500001,1.0639501,10.080001,-0.022,0.026,0.328,-0.167,1.036,9.75,-0.032449998,0.047849998,-0.02915,0.047374,-0.025019,-0.601694,0.796927,0
13921,-0.28605002,0.93195003,9.573001,-0.089,-0.115,-0.188,-0.169,1.041,9.749,0.026124999,-0.0086625,-0.0803,0.047645,-0.025243,-0.602863,0.79602,0
13961,-0.40095,1.00905,9.87705,-0.199,-0.02,0.124,-0.195,1.028,9.75,-0.0474375,0.091437496,-0.013062499,0.047878,-0.023777,-0.603485,0.79558,0
14001,-0.042000003,1.0489501,9.691951,0.175,0.026,-0.066,-0.216,1.022,9.75,0.0059125,-0.0075625,-0.0419375,0.048288,-0.022723,-0.603102,0.795876,0
14041,-0.38205,1.11195,9.678,-0.16,0.083,-0.08,-0.22,1.019,9.75,-0.058025,0.087175,-0.0556875,0.048288,-0.022492,-0.603755,0.795387,0
14081,0.19395001,1.19805,9.769051,0.427,0.176,0.014,-0.237,1.008,9.751,-0.0367125,0.036025,-0.0163625,0.048345,-0.021485,-0.60369,0.795461,0
14122,0.064950004,1.1040001,9.70905,0.26,0.098,-0.055,-0.206,1.004,9.752,-0.0655875,0.0350625,-0.104775,0.047203,-0.022662,-0.604576,0.794823,0
14161,-0.09195001,1.2940501,9.87195,0.144,0.306,0.106,-0.225,0.987,9.754,-0.0517,0.0317625,-0.0248875,0.047067,-0.021385,-0.605469,0.794187,0
14201,-0.066,1.57605,9.714001,0.155,0.555,-0.04,-0.209,1.011,9.752,-0.0528,0.037125,-0.0664125,0.047532,-0.022827,-0.60598,0.793729,0
14241,-0.079950005,1.5160501,9.934051,0.149,0.491,0.178,-0.218,1.02,9.75,-0.0570625,9.63E-04,-0.0312125,0.048155,-0.02279,-0.606372,0.793394,0
14281,-0.47100002,1.50705,9.8890505,-0.24,0.466,0.138,-0.222,1.031,9.749,-0.0378125,0.122375,-0.0675125,0.048762,-0.022975,-0.606726,0.79308,0
14322,-0.99300003,1.5619501,9.814051,-0.676,0.493,0.062,-0.304,1.059,9.744,0.0836,0.089375,0.063525,0.052501,-0.020562,-0.607092,0.792628,0
14361,-1.0309501,2.055,8.77005,-0.638,0.877,-0.971,-0.383,1.165,9.729,0.159225,0.1106875,0.0902,0.059219,-0.020556,-0.605333,0.793499,0
14401,-0.80295,1.7389501,9.031051,-0.389,0.467,-0.685,-0.414,1.262,9.716,-0.117699996,-0.1194875,0.013475,0.064181,-0.022198,-0.603974,0.794104,0
14441,-0.85800004,1.452,10.588051,-0.438,0.243,0.859,-0.419,1.199,9.723,-0.2305875,-0.0160875,0.0592625,0.061768,-0.020027,-0.603629,0.794616,0
14481,-0.59505004,1.6720501,10.399051,-0.178,0.502,0.662,-0.407,1.159,9.729,-0.0985875,-1.38E-04,6.88E-04,0.059699,-0.019131,-0.602717,0.795488,0
14522,-1.218,1.7170501,10.236,-0.787,0.545,0.542,-0.465,1.157,9.726,0.032449998,0.140525,0.07315,0.0616,-0.016631,-0.601968,0.795966,0
14561,-0.61695004,2.01195,9.34305,-0.109,0.741,-0.382,-0.503,1.26,9.712,0.13255,-0.0512875,0.1040875,0.067126,-0.018331,-0.599183,0.797582,0
14601,-0.882,1.9590001,8.67,-0.381,0.604,-1.036,-0.503,1.356,9.699,0.0622875,-0.0694375,0.098725,0.070961,-0.020907,-0.597367,0.798548,0
14641,-0.51900005,1.9710001,9.132,-0.03,0.549,-0.623,-0.473,1.397,9.694,-0.0985875,-0.048125,0.0924,0.071807,-0.023221,-0.595141,0.800069,0
14682,-0.57405,1.8970501,9.88395,-0.132,0.502,0.177,-0.442,1.392,9.697,-0.0974875,-0.1843875,0.0231,0.070483,-0.024266,-0.593505,0.80137,0
14721,-0.49005002,1.9660501,9.76395,-0.083,0.532,0.067,-0.38,1.401,9.698,0.0037125,-0.0746625,-0.0067375,0.069823,-0.027365,-0.592485,0.802082,0
14761,-0.372,1.9660501,10.032001,-0.011,0.515,0.331,-0.356,1.445,9.692,-0.0037125,-0.1428625,-0.0215875,0.070296,-0.029216,-0.591791,0.802488,0
14801,-0.24795002,1.8199501,10.156951,0.025,0.327,0.457,-0.27,1.483,9.689,0.082499996,-0.22275,-0.1005125,0.069284,-0.033911,-0.592057,0.802195,0
14841,0.22500001,1.5589501,10.50405,0.388,0.058,0.772,-0.181,1.508,9.688,0.0207625,-0.1599125,-0.1227875,0.067546,-0.038411,-0.592804,0.801588,0
14882,-0.10395,1.7680501,10.618951,0.035,0.212,0.926,-0.13,1.544,9.683,0.227425,-0.111925,-0.19525,0.067425,-0.041662,-0.593784,0.800711,0
14921,-0.15195,1.4610001,9.8890505,-0.101,-0.165,0.217,-0.048,1.622,9.671,0.1230625,-0.2761,-0.3273875,0.067984,-0.047732,-0.596498,0.798303,0
14961,-0.09,1.1020501,10.67595,-0.075,-0.497,0.987,-0.006,1.587,9.677,-0.0793375,-0.1727,-0.304975,0.064967,-0.048718,-0.601084,0.795048,0
15001,0.12900001,0.71205,10.128,0.088,-0.806,0.431,0.033,1.514,9.688,-0.117699996,-0.0268125,-0.3796375,0.060406,-0.048351,-0.605753,0.791881,0
15041,-0.669,0.36705002,10.755,-0.665,-1.046,1.04,-0.001,1.4,9.706,-0.128425,0.0191125,-0.2921875,0.056682,-0.043747,-0.610481,0.788787,0
15081,-0.29595003,0.53895,9.793051,-0.219,-0.82,0.08,-0.066,1.351,9.712,0.3328875,0.0499125,-0.085525,0.056614,-0.03971,-0.612492,0.787445,0
15122,-0.09195001,0.76500005,8.60295,-0.021,-0.688,-1.103,-0.06,1.451,9.698,0.328625,-0.0831875,-0.1122,0.060433,-0.043187,-0.613065,0.786532,0
15161,0.060000002,0.40800002,9.3810005,0.096,-1.078,-0.324,-0.041,1.473,9.695,0.1145375,-0.014025,-0.103675,0.060686,-0.044711,-0.613884,0.785788,0
15201,0.112950005,0.46800002,9.12195,0.139,-0.982,-0.587,-0.03,1.445,9.699,-0.0026125,0.0297,-0.1153625,0.059167,-0.044302,-0.615005,0.78505,0
15241,-0.09,0.47700003,10.078051,-0.034,-0.877,0.352,-0.046,1.354,9.712,-0.117699996,0.01155,-0.0067375,0.054862,-0.040088,-0.616301,0.784573,0
15282,0.076950006,1.0350001,9.10305,0.157,-0.296,-0.539,-0.049,1.306,9.719,0.1049125,0.0851125,0.0848375,0.053996,-0.03915,-0.615142,0.785589,0
15321,-0.04695,1.34895,8.679001,0.006,0.02,-1.04,-0.047,1.327,9.716,-0.0463375,-0.014025,0.1211375,0.054948,-0.039802,-0.613196,0.78701,0
15361,0.17505,1.4470501,9.130051,0.199,0.136,-0.593,-0.035,1.307,9.719,-0.0974875,0.087175,0.149875,0.053968,-0.039447,-0.610732,0.78901,0
15401,0.25605002,1.6669501,9.462001,0.284,0.375,-0.269,-0.038,1.283,9.722,-0.142175,0.020075,0.1274625,0.053224,-0.038407,-0.608179,0.791081,0
15441,0.51705,1.6669501,9.72795,0.509,0.39,0,0.006,1.271,9.723,-0.108075,0.0232375,0.1263625,0.051362,-0.039735,-0.605463,0.793219,0
15481,-0.052050002,1.66005,10.044001,-0.005,0.42,0.271,-0.008,1.254,9.726,-0.1166,0.14905,0.1263625,0.051289,-0.038241,-0.603211,0.795011,0
15522,0.036000002,1.8010501,9.64395,0.041,0.519,-0.027,-0.041,1.264,9.724,0.060225,0.037125,0.24255,0.052941,-0.037201,-0.599913,0.797444,0
15561,0.19605,2.079,9.28005,0.227,0.726,-0.481,-0.023,1.329,9.716,-0.006875,0.0680625,0.27445,0.055262,-0.039566,-0.595154,0.800731,0
15601,0.055050004,2.1460502,10.437,0.09,0.765,0.723,-0.035,1.373,9.709,-0.0059125,0.0968,0.3235375,0.057697,-0.040007,-0.589657,0.804595,0
15641,0.42105,2.223,9.771001,0.417,0.758,0.068,-0.008,1.461,9.697,0.175175,-0.0012375,0.31707498,0.060889,-0.043339,-0.583177,0.808899,0
15681,0.19395001,2.1360002,10.38195,0.184,0.607,0.61,0.005,1.53,9.686,-0.0037125,0.205425,0.2894375,0.063712,-0.045466,-0.577537,0.812602,0
15722,-0.26205,2.055,10.861051,-0.194,0.475,1.175,-0.063,1.567,9.68,0.1859,0.206525,0.3661625,0.067573,-0.043324,-0.57166,0.816554,0
15761,0.32805002,1.4250001,9.8550005,0.403,-0.25,0.183,-0.076,1.667,9.663,0.0559625,-0.081125,0.300025,0.07251,-0.04512,-0.564792,0.820802,0
15801,0.192,0.03195,12.637051,0.148,-1.47,2.934,0.042,1.498,9.691,-0.330825,-0.08965,0.081675,0.062075,-0.044949,-0.56157,0.823872,0
15841,-0.66195005,0.25695002,11.29395,-0.672,-1.21,1.593,0.018,1.455,9.698,0.45319998,0.08195,0.2734875,0.061505,-0.042642,-0.557938,0.8265,0
15881,-0.24105,1.0180501,8.277,-0.251,-0.608,-1.404,0.02,1.616,9.672,0.276375,-1.38E-04,0.18933749,0.068288,-0.046685,-0.55214,0.829637,0
15921,-0.813,0.50595003,10.321951,-0.791,-1.103,0.636,-0.012,1.607,9.673,-0.0389125,0.0180125,0.082775,0.069015,-0.044758,-0.548669,0.831982,0
15962,-0.43500003,0.018000001,10.147051,-0.391,-1.51,0.484,-0.03,1.51,9.689,0.1496,0.004125,0.0347875,0.065424,-0.040952,-0.546553,0.833859,0
16001,-0.98295003,0.42000002,9.618,-0.848,-1.081,-0.075,-0.132,1.49,9.691,0.1496,0.2321,0.07205,0.067748,-0.035898,-0.544863,0.835011,0
16041,-0.54195005,0.74505,8.79195,-0.306,-0.782,-0.9,-0.224,1.517,9.685,0.277475,0.1447875,0.114675,0.071686,-0.03262,-0.541964,0.836702,0
16083,-0.61695004,1.19505,8.196,-0.34,-0.404,-1.502,-0.301,1.578,9.674,0.0963875,0.174625,0.10615,0.076269,-0.030659,-0.538869,0.838368,0
16121,-0.44205,1.416,8.67195,-0.071,-0.172,-1.009,-0.363,1.575,9.672,-0.010175,0.1255375,0.081675,0.07796,-0.027659,-0.53603,0.840135,0
16161,-0.69105005,1.84905,8.385,-0.276,0.236,-1.289,-0.404,1.602,9.666,-0.0187,-0.0075625,0.03795,0.080276,-0.026477,-0.533918,0.841299,0
16201,-0.564,1.9900501,8.875951,-0.143,0.384,-0.798,-0.415,1.603,9.665,-0.13365,0.0286,0.0199375,0.080722,-0.025902,-0.53243,0.842217,0
16242,-0.68895006,2.15295,9.349951,-0.277,0.534,-0.337,-0.431,1.59,9.667,-0.115637496,-0.028875,-0.002475,0.080491,-0.024718,-0.531435,0.842903,0
16281,-0.58095,2.22705,9.570001,-0.145,0.612,-0.092,-0.413,1.594,9.667,-0.061325,-0.0820875,-0.0099,0.080204,-0.025562,-0.530448,0.843527,0
16321,-0.91095006,2.4739501,9.276,-0.487,0.783,-0.354,-0.41,1.656,9.656,0.0281875,-0.12265,0.0209,0.083023,-0.027225,-0.529069,0.844068,0
16361,-0.40395,2.436,9.793051,-0.041,0.716,0.142,-0.353,1.707,9.65,-0.025024999,-0.1727,0.0358875,0.083765,-0.030867,-0.526695,0.845353,0
16401,-0.44400004,2.32605,10.189951,-0.148,0.578,0.54,-0.291,1.736,9.647,0.00165,-0.18975,-0.0578875,0.083278,-0.03442,-0.525632,0.845925,0
16442,-0.48000002,1.9260001,11.260051,-0.21,0.207,1.531,-0.239,1.727,9.65,-0.1390125,-0.0853875,-0.1142625,0.081386,-0.036288,-0.526179,0.845691,0
16481,-0.47805002,1.7700001,11.722951,-0.251,0.067,2.056,-0.225,1.689,9.657,0.0889625,-0.2462625,-0.1057375,0.079471,-0.035934,-0.526693,0.845568,0
16521,0.66105,1.5810001,10.446,0.707,-0.159,0.795,-0.053,1.739,9.65,0.13255,-0.4624125,-0.1846625,0.07697,-0.044868,-0.527789,0.844689,0
16561,0.08595,0.72405005,11.43795,-0.003,-0.932,1.761,0.085,1.654,9.665,-0.3521375,-0.111925,-0.406175,0.069278,-0.048876,-0.531842,0.842588,0
16601,-1.0309501,0.513,11.778001,-0.996,-0.993,2.076,-0.025,1.497,9.691,0.0697125,0.3119875,-0.172975,0.065256,-0.040053,-0.53574,0.840903,0
16641,-0.71505004,1.0710001,8.79195,-0.552,-0.55,-0.886,-0.155,1.612,9.671,0.6439125,0.07975,-0.02805,0.073919,-0.037538,-0.534634,0.841007,0
16681,-0.29595003,1.14495,8.03505,-0.211,-0.663,-1.685,-0.153,1.801,9.638,0.3317875,-0.132275,0.0358875,0.082086,-0.042759,-0.533167,0.840931,0
16721,0.73695004,1.03695,8.887951,0.861,-0.827,-0.746,-0.126,1.862,9.627,-0.025024999,0.11495,-0.0088,0.084121,-0.045444,-0.53136,0.841733,0
16761,0.00495,0.69495004,9.913051,0.15,-1.075,0.257,-0.15,1.77,9.644,-0.0741125,0.173525,-0.1164625,0.080813,-0.041684,-0.531602,0.842098,0
16801,-0.564,1.0879501,8.809051,-0.33,-0.657,-0.85,-0.227,1.733,9.649,0.13255,0.1287,0.0347875,0.081236,-0.037532,-0.532003,0.841999,0
16841,-0.17400001,1.46595,8.232,0.104,-0.275,-1.421,-0.268,1.732,9.648,-0.111375,0.0925375,0.1274625,0.082385,-0.03561,-0.530275,0.843061,0
16882,-0.40095,1.57605,9.27795,-0.092,-0.105,-0.439,-0.302,1.658,9.66,-0.2402125,0.0765875,0.15413749,0.080201,-0.031836,-0.527817,0.844963,0
16921,-0.07095,1.3249501,9.649051,0.222,-0.249,-0.032,-0.29,1.571,9.675,-0.17847499,0.004125,0.181775,0.076012,-0.029579,-0.524459,0.847519,0
16961,-0.34905002,1.5330001,9.10995,-0.049,0.011,-0.586,-0.291,1.514,9.684,-0.0985875,0.1084875,0.2041875,0.073755,-0.027693,-0.521304,0.849726,0
17002,-0.52095,1.69305,9.022051,-0.206,0.208,-0.686,-0.31,1.48,9.689,-0.1890625,0.04455,0.2553375,0.072971,-0.025693,-0.517346,0.852272,0
17042,-0.27705002,1.7629501,8.77005,0.035,0.304,-0.935,-0.307,1.452,9.693,-0.177375,-0.0160875,0.31075,0.071798,-0.024643,-0.512039,0.8556,0
17081,-0.65505004,1.6500001,9.525001,-0.357,0.261,-0.183,-0.295,1.386,9.703,-0.3201,0.0584375,0.334125,0.068455,-0.022844,-0.507029,0.858902,0
17122,-0.82500005,1.71,9.637051,-0.452,0.396,-0.083,-0.352,1.301,9.713,-0.226325,0.1511125,0.44605,0.066605,-0.017761,-0.500252,0.863131,0
17161,-0.56205004,1.7509501,10.19295,-0.206,0.473,0.43,-0.365,1.27,9.717,-0.115637496,-0.0405625,0.5600375,0.065561,-0.015788,-0.4917,0.868149,0
17201,-0.55395,1.75995,9.9529505,-0.195,0.485,0.225,-0.349,1.271,9.717,-0.1667875,0.124437496,0.5908375,0.065522,-0.01571,-0.481471,0.873867,0
17241,-0.75795,1.54305,11.056951,-0.353,0.337,1.321,-0.395,1.201,9.724,-0.328625,0.0435875,0.6292,0.063633,-0.011194,-0.471347,0.879577,0
17282,-0.10005,1.0210501,11.677051,0.236,-0.069,1.93,-0.331,1.077,9.741,-0.363825,-0.031075,0.571725,0.056616,-0.010389,-0.461218,0.885417,0
17321,-0.6,0.62295,11.392051,-0.207,-0.341,1.674,-0.339,0.965,9.753,-0.1486375,0.1607375,0.5174125,0.051778,-0.006873,-0.452171,0.8904,0
17361,-1.74405,0.52305,10.83195,-1.31,-0.385,1.072,-0.432,0.903,9.755,-0.0165,0.155375,0.553575,0.05113,-6.64E-04,-0.443352,0.894887,0
17401,-1.383,0.26895002,9.955951,-0.881,-0.657,0.191,-0.493,0.916,9.751,0.1634875,-0.1087625,0.7346625,0.053106,0.002443,-0.432555,0.900038,0
17441,-1.47105,0.109050006,10.248,-0.993,-0.81,0.49,-0.477,0.919,9.751,0.06655,-0.0055,0.755975,0.052854,0.002347,-0.420262,0.905858,0
17481,-0.78705,0.24705002,9.85995,-0.306,-0.703,0.098,-0.469,0.949,9.749,0.2743125,-0.0820875,0.8210125,0.054027,0.002162,-0.406697,0.911961,0
17522,-1.4980501,0.34995002,9.04605,-0.951,-0.659,-0.725,-0.478,1.013,9.742,0.125125,0.1607375,0.708125,0.057153,0.003863,-0.393128,0.917697,0
17561,-1.4089501,0.29805002,9.21105,-0.818,-0.718,-0.53,-0.584,1.004,9.737,0.124025,0.08085,0.78265,0.058947,0.007996,-0.380246,0.92297,0
17601,-1.6609501,0.56595004,8.316,-1.003,-0.486,-1.421,-0.644,1.045,9.729,0.092125,0.0638,0.7880125,0.06188,0.010953,-0.366612,0.928248,0
17641,-1.005,0.71205,9.036,-0.324,-0.338,-0.697,-0.669,1.046,9.727,-0.0719125,-0.081125,0.910525,0.062016,0.01302,-0.351721,0.933957,0
17681,-0.85605,0.68100005,9.20895,-0.213,-0.338,-0.525,-0.63,1.019,9.733,-0.1145375,0.088275,0.757075,0.059815,0.012785,-0.336656,0.939638,0
17721,-1.1050501,0.597,9.699,-0.488,-0.394,-0.025,-0.655,0.966,9.736,-0.0463375,-0.044825,0.8358625,0.057456,0.01566,-0.322987,0.944527,0
17761,-0.54195005,1.08105,9.120001,0.068,0.078,-0.597,-0.626,0.984,9.736,0.00165,0.07865,0.8358625,0.057735,0.014933,-0.307627,0.949636,0
17802,-0.39600003,1.404,9.405001,0.203,0.382,-0.337,-0.6,1.019,9.735,0.0037125,-0.0246125,0.7698625,0.058797,0.013906,-0.293063,0.954181,0
17841,-0.22605,1.4680501,9.56805,0.301,0.39,-0.173,-0.516,1.067,9.734,-0.0165,-0.077825,0.6345625,0.059775,0.010143,-0.280892,0.957822,0
17881,-0.73200005,1.50405,10.51305,-0.249,0.415,0.766,-0.471,1.083,9.735,-0.0207625,-0.0342375,0.58134997,0.060241,0.008299,-0.269707,0.96102,0
17922,-0.26205,1.5520501,9.951,0.15,0.399,0.211,-0.412,1.138,9.731,0.032449998,-0.0939125,0.54395,0.061665,0.005046,-0.259197,0.96384,0
17962,-0.64500004,1.5120001,10.144951,-0.267,0.354,0.402,-0.374,1.159,9.73,-0.1049125,-0.0726,0.4736875,0.062023,0.003581,-0.2503,0.966172,0
18001,0.031050002,0.60405004,10.509001,0.275,-0.465,0.733,-0.269,1.102,9.74,-0.1997875,-0.28985,0.453475,0.05795,-3.00E-04,-0.24201,0.968541,0
18041,-0.246,0.26895002,11.512051,-0.031,-0.71,1.668,-0.143,0.948,9.759,-0.3510375,-0.029975,0.5248375,0.048809,-0.004198,-0.233672,0.97108,0
18081,-0.76995003,0.42900002,11.217001,-0.555,-0.411,1.44,-0.204,0.832,9.769,0.0782375,0.1777875,0.7123875,0.04382,8.66E-04,-0.222186,0.974018,0
18122,-0.62595004,0.74805003,9.501,-0.392,-0.19,-0.266,-0.233,0.926,9.759,0.326425,0.0317625,0.7645,0.048422,0.001884,-0.209005,0.976713,0
18161,0.11505,0.441,9.658951,0.329,-0.575,-0.094,-0.22,1.011,9.751,0.1720125,0.0424875,0.7847125,0.052862,0.001011,-0.19374,0.979627,0
18201,0.36405003,-0.108,10.34595,0.53,-1.088,0.583,-0.176,0.993,9.754,-0.0506,0.156475,0.6612375,0.051508,-2.89E-04,-0.180103,0.982298,0
18241,-0.11400001,0.120000005,10.729051,0.119,-0.799,0.957,-0.228,0.908,9.761,0.158125,0.3290375,0.8050625,0.04768,0.003739,-0.166706,0.984845,0
18281,0.12195001,0.94395006,8.26305,0.386,-0.09,-1.494,-0.263,1.03,9.748,0.3658875,0.1351625,0.8124875,0.054033,0.005374,-0.150674,0.987091,0
18321,0.20400001,1.15695,8.469001,0.454,0.013,-1.279,-0.263,1.13,9.737,0.022824999,0.21725,0.80396247,0.059029,0.005497,-0.135465,0.989006,0
18362,0.36195,0.95100003,9.393001,0.611,-0.193,-0.353,-0.257,1.133,9.737,-0.0133375,0.14905,0.674025,0.059062,0.00604,-0.120889,0.990888,0
18401,-0.162,0.91995007,9.22305,0.113,-0.213,-0.517,-0.263,1.126,9.738,-0.006875,0.19167499,0.7198125,0.058653,0.007112,-0.108315,0.992359,0
18441,0.40500003,1.131,8.908951,0.664,0.003,-0.83,-0.269,1.126,9.738,-0.0485375,0.2448875,0.71555,0.058559,0.008453,-0.093153,0.993892,0
18481,-0.31005,1.3060501,9.06705,0.009,0.181,-0.694,-0.312,1.109,9.738,-0.161425,0.2278375,0.689975,0.057775,0.01131,-0.080642,0.995002,0
18521,0.28305,1.26495,9.867001,0.549,0.193,0.091,-0.318,1.073,9.742,-0.1145375,0.1084875,0.7624375,0.055765,0.012562,-0.066596,0.996141,0
18562,0.04095,1.4110501,9.489,0.376,0.327,-0.208,-0.308,1.075,9.742,-0.0378125,0.1639,0.705925,0.055655,0.012839,-0.052331,0.996995,0
18601,-0.08505,1.24605,10.044001,0.218,0.152,0.296,-0.3,1.086,9.741,-0.0389125,0.1287,0.7528125,0.056035,0.013209,-0.037839,0.997624,0
18641,-0.033,1.2430501,9.96,0.266,0.132,0.216,-0.293,1.106,9.739,0.0441375,0.0754875,0.7954375,0.056922,0.013678,-0.022806,0.998024,0
18681,-0.57600003,1.128,10.425,-0.266,-0.001,0.667,-0.278,1.118,9.738,0.006875,0.104225,0.8369625,0.057257,0.013788,-0.007648,0.998234,0
18721,-0.46605003,1.2580501,9.288,-0.215,0.104,-0.405,-0.274,1.148,9.735,0.0133375,-0.0831875,0.892375,0.058571,0.014364,0.009204,0.998137,0
18761,0.321,0.36900002,10.762051,0.468,-0.698,1.012,-0.154,1.065,9.747,-0.4852375,-0.2696375,0.7709625,0.052731,0.008266,0.024975,0.998262,0
18801,-0.47805002,-0.26595002,12.10305,-0.41,-1.043,2.319,-0.066,0.784,9.774,-0.4543,0.0308,0.64845,0.039885,0.004891,0.038025,0.998468,0
18841,-1.1149501,0.09900001,11.32005,-0.989,-0.563,1.534,-0.113,0.659,9.783,0.0867625,0.053075,0.8210125,0.033276,0.007521,0.05155,0.998087,0
18881,-0.29805002,0.55905,9.25395,-0.228,-0.168,-0.462,-0.093,0.731,9.778,0.245575,-0.2173875,0.821975,0.03691,0.007269,0.067448,0.997013,0
18922,-0.078,0.35700002,9.738001,-0.056,-0.395,-0.053,-0.011,0.749,9.777,-0.0911625,-0.0149875,0.62067497,0.038069,0.003678,0.080766,0.995999,0
18961,-0.51105005,0.25500003,10.47,-0.446,-0.426,0.676,-0.057,0.671,9.783,-0.034649998,0.1959375,0.495,0.033854,0.006045,0.091292,0.99523,0
19001,-0.46095002,0.62595004,9.4480505,-0.317,-0.092,-0.341,-0.132,0.705,9.78,0.23705,0.12979999,0.495,0.035121,0.010334,0.100499,0.994263,0
19041,-0.34905002,0.97005004,8.59095,-0.167,0.156,-1.19,-0.173,0.81,9.771,0.195525,0.123475,0.4321625,0.040162,0.013316,0.109116,0.993128,0
19081,0.08595,1.0690501,8.79195,0.292,0.189,-0.98,-0.21,0.872,9.765,0.0026125,0.140525,0.3746875,0.042984,0.015887,0.116756,0.992102,0
19122,-0.040050004,1.023,9.148951,0.183,0.137,-0.625,-0.21,0.884,9.764,-0.0548625,0.045649998,0.235125,0.043485,0.016211,0.12245,0.991389,0
19161,0.15105,1.1400001,9.771001,0.348,0.256,0,-0.198,0.874,9.765,-0.0655875,0.106425,0.181775,0.042981,0.015699,0.126321,0.990933,0
19201,-0.021000002,1.4640001,9.052951,0.191,0.549,-0.718,-0.205,0.907,9.762,0.082499996,0.0308,0.0955625,0.044595,0.016381,0.128856,0.990524,0
19241,-0.23400001,1.5589501,9.07695,-0.035,0.596,-0.686,-0.195,0.956,9.757,-0.128425,0.01155,0.0103125,0.046984,0.016213,0.129336,0.990354,0
19281,-0.42000002,1.4970001,10.07505,-0.189,0.547,0.306,-0.219,0.937,9.759,-0.0741125,0.0297,6.88E-04,0.046593,0.017616,0.129211,0.990365,0
19321,-0.50205004,1.6620001,9.58905,-0.267,0.659,-0.164,-0.222,1.002,9.752,0.1145375,-0.0917125,-0.015262499,0.049407,0.01779,0.128634,0.9903,0
19362,-0.25995,1.5790501,9.40005,-0.062,0.527,-0.401,-0.183,1.079,9.745,-0.0133375,-0.130075,-0.0727375,0.053494,0.016316,0.127591,0.990248,0
19401,-0.70005006,0.85095006,11.067,-0.548,-0.197,1.309,-0.146,1.042,9.75,-0.154,-0.1087625,-0.1452,0.051855,0.014051,0.124782,0.990728,0
19441,-0.51405,1.2940501,10.59,-0.372,0.266,0.831,-0.13,1.027,9.751,0.1912625,-0.13859999,0.0231,0.05124,0.013101,0.123065,0.990988,0
19481,0.36600003,1.5690001,9.460051,0.357,0.433,-0.288,-0.013,1.13,9.741,0.0292875,-0.4538875,-0.0760375,0.0574,0.007281,0.122319,0.990802,0
19521,0.97905004,0.29805002,11.2890005,0.744,-0.704,1.474,0.195,1.045,9.748,-0.3521375,-0.4538875,-0.2176625,0.053905,-0.004051,0.118383,0.991495,0
19562,0.22305001,0.29505002,11.940001,0.019,-0.62,2.237,0.29,0.891,9.761,-0.03575,0.1863125,-0.20693749,0.046918,-0.009538,0.113579,0.992374,0
19601,-0.41805002,0.846,9.561001,-0.594,-0.107,-0.21,0.186,0.951,9.758,0.30305,0.0413875,-0.1590875,0.049322,-0.004097,0.110046,0.992693,0
19641,-0.32895002,0.45600003,9.84105,-0.475,-0.555,0.079,0.161,1.017,9.752,0.1060125,-0.0235125,-0.1346125,0.051809,-0.002077,0.106479,0.992962,0
19681,0.28995,0.13005,10.354951,0.156,-0.857,0.594,0.129,0.98,9.756,0.058025,0.105325,-0.0823625,0.050473,-0.001325,0.104386,0.993254,0
19721,-0.16695,0.18300001,9.967951,-0.225,-0.784,0.197,0.062,0.961,9.759,0.1401125,0.2426875,-0.077,0.049144,0.001867,0.102477,0.993518,0
19761,-0.22200002,0.58305,8.72505,-0.178,-0.434,-1.037,-0.038,1.006,9.754,0.22,0.1596375,0.049775,0.05113,0.007397,0.102186,0.993422,0
19802,-0.22905001,0.82005006,8.181001,-0.122,-0.233,-1.577,-0.095,1.05,9.749,0.0611875,0.156475,0.1115125,0.052847,0.010397,0.103492,0.99317,0
19841,-0.079950005,0.71895003,8.854051,0.077,-0.32,-0.898,-0.145,1.029,9.751,-0.093225,0.105325,0.166925,0.051462,0.012948,0.106012,0.992947,0
19881,-0.14505,0.68100005,8.863951,0.019,-0.304,-0.902,-0.156,0.985,9.755,-0.0537625,0.037125,0.2371875,0.049109,0.013442,0.109676,0.992662,0
19921,0.29700002,1.14795,8.998051,0.439,0.191,-0.769,-0.153,0.952,9.759,-0.1667875,0.1084875,0.3394875,0.047217,0.013446,0.115383,0.992107,0
19961,0.48405004,1.47105,9.148951,0.625,0.556,-0.623,-0.148,0.914,9.762,-0.16885,0.095699996,0.268125,0.045415,0.013185,0.12113,0.991509,0
20001,-0.018000001,1.45605,9.99195,0.125,0.548,0.218,-0.139,0.895,9.764,-0.20075,0.090475,0.27665,0.044426,0.012789,0.12573,0.990986,0
20042,0.52905005,1.746,10.14,0.654,0.833,0.368,-0.136,0.896,9.764,-0.0463375,0.14905,0.3256,0.044375,0.013078,0.132169,0.990146,0
20081,0.03795,1.8870001,10.30305,0.183,0.934,0.537,-0.155,0.944,9.759,0.0441375,0.11495,0.285175,0.046718,0.014611,0.137631,0.989273,0
20121,0.26595002,1.5120001,10.482,0.407,0.493,0.721,-0.148,1.018,9.752,0.0847,0.0573375,0.31501248,0.050361,0.01494,0.143091,0.988314,0
20161,-0.38895002,1.4830501,11.725051,-0.192,0.437,1.963,-0.188,1.033,9.75,-0.0622875,0.3694625,0.4299625,0.050816,0.017907,0.149762,0.987252,0
20202,-0.010950001,1.33905,11.478001,0.237,0.268,1.696,-0.278,1.065,9.744,0.1496,0.0743875,0.451275,0.051625,0.022753,0.158791,0.985698,0
20241,0.462,0.63495004,11.517,0.577,-0.48,1.766,-0.119,1.109,9.742,0.0782375,-0.3975125,0.2286625,0.054853,0.015379,0.164809,0.984678,0
20281,-0.91605,-0.12495001,11.241,-0.79,-1.205,1.544,-0.04,1.082,9.746,0.1720125,-0.0160875,0.2127125,0.054328,0.011321,0.167988,0.984225,0
20321,-0.57105005,0.381,9.81,-0.377,-0.675,-0.11,-0.085,1.122,9.741,0.427625,0.0638,0.4577375,0.056503,0.014451,0.174218,0.982978,0
20361,-0.15495001,0.90300006,7.5109506,-0.087,-0.383,-2.162,-0.072,1.289,9.721,0.379775,-0.15675,0.2531375,0.064141,0.015574,0.180816,0.981299,0
20402,-0.80295,0.39795002,8.497951,-0.74,-0.884,-1.342,-0.019,1.303,9.719,-0.161425,-0.0917125,0.063525,0.065308,0.013184,0.182475,0.98095,0
20441,-0.87795,0.09705,9.987,-0.809,-1.06,0.245,-0.062,1.155,9.738,-0.1634875,9.63E-04,0.1243,0.057421,0.014008,0.18382,0.981181,0
20481,-0.39195,0.441,9.237,-0.309,-0.659,-0.51,-0.073,1.093,9.745,0.082499996,-0.0609125,0.166925,0.054273,0.014064,0.186343,0.980883,0
20521,-0.42495003,0.97800004,8.65095,-0.309,-0.133,-1.095,-0.112,1.1,9.744,0.0622875,0.132,0.1584,0.054089,0.016301,0.18901,0.980348,0
20561,-0.20205002,1.2529501,8.401951,-0.048,0.129,-1.35,-0.142,1.123,9.741,-0.0367125,0.0094875,0.0603625,0.054936,0.018098,0.190935,0.979896,0
20601,-0.41295,1.2390001,9.11505,-0.252,0.135,-0.632,-0.155,1.09,9.744,-0.2402125,0.0521125,-0.0675125,0.053143,0.018442,0.1905,0.980074,0
20642,-0.78900003,1.212,9.71595,-0.574,0.197,-0.04,-0.201,1.014,9.751,-0.176275,0.0265375,-0.05995,0.048906,0.019898,0.18879,0.980597,0
20681,-0.28905,1.46595,9.477,-0.059,0.477,-0.288,-0.226,0.979,9.754,-0.125125,0.0180125,0.0028875,0.046952,0.020778,0.188177,0.980791,0
20721,-0.028050002,1.6720501,9.867001,0.2,0.673,0.107,-0.227,0.988,9.754,-0.1049125,0.0275,-0.035475,0.047375,0.020879,0.187689,0.980863,0
20761,-0.31305,1.7389501,9.573001,-0.074,0.71,-0.189,-0.225,1.019,9.75,0.0048125,-0.0715,-0.103675,0.048978,0.020982,0.186036,0.981096,0
20801,0.064950004,1.725,9.56295,0.244,0.667,-0.187,-0.19,1.048,9.748,-0.111375,0.01265,-0.1175625,0.050743,0.019381,0.183344,0.981546,0
20842,-0.102000006,1.5000001,10.25205,0.164,0.475,0.395,-0.219,1.009,9.752,-0.30305,0.1596375,-0.2464,0.048354,0.0204,0.17995,0.982274,0
20881,-0.30795002,1.0900501,11.919001,-0.047,0.165,2.158,-0.251,0.923,9.759,-0.0858,-0.0704,-0.270875,0.04417,0.020917,0.175016,0.983351,0
20921,-1.03995,1.3770001,10.21695,-0.836,0.394,0.459,-0.198,0.981,9.755,0.2902625,-0.22165,-0.3018125,0.047674,0.018478,0.16873,0.984335,0
20961,-0.45405003,1.09695,10.59195,-0.277,0.037,0.834,-0.171,1.052,9.748,0.00165,-0.265375,-0.1782,0.051621,0.017204,0.163363,0.985064,0
21001,0.73305005,0.68295,10.903951,0.795,-0.319,1.157,-0.046,1.027,9.752,-0.0847,-0.275,-0.3177625,0.051414,0.010682,0.15874,0.985922,0
21042,-0.58605003,0.14205001,12.004951,-0.52,-0.807,2.209,0.016,0.93,9.762,-0.1529,0.0638,-0.4296875,0.045697,0.00688,0.149954,0.987612,0
21081,-0.82005006,0.65400004,10.17105,-0.675,-0.276,0.399,-0.142,0.93,9.761,0.4659875,0.2778875,-0.1249875,0.046328,0.014402,0.144794,0.988271,0
21121,0.04605,0.97305006,7.96605,0.193,-0.157,-1.758,-0.18,1.124,9.74,0.4233625,-0.077825,-0.0803,0.05593,0.017297,0.14268,0.988035,0
21161,0.043050002,0.49605003,8.93805,0.201,-0.699,-0.797,-0.16,1.189,9.732,0.006875,0.0616,-0.1227875,0.059031,0.016647,0.14013,0.988231,0
21201,0.13605,0.30495003,9.89295,0.303,-0.825,0.134,-0.181,1.125,9.74,-0.0037125,0.0680625,-0.02695,0.055634,0.017211,0.138644,0.988628,0
21242,-0.028050002,0.74100006,8.553,0.176,-0.388,-1.093,-0.176,1.112,9.741,0.1518,0.072325,0.0166375,0.055013,0.016809,0.138237,0.988727,0
21281,-0.052050002,1.06095,7.9729505,0.135,-0.066,-1.811,-0.176,1.142,9.738,-0.078375,-0.02145,0.0561,0.056453,0.017002,0.138783,0.988566,0
21321,0.08895,0.915,9.52005,0.234,-0.148,-0.24,-0.152,1.06,9.747,-0.279675,0.0083875,0.1029875,0.052532,0.015306,0.13997,0.988642,0
21361,0.33795002,0.906,9.667951,0.457,-0.074,-0.1,-0.13,0.973,9.757,-0.1390125,0.021175,0.097625,0.048259,0.013646,0.141955,0.988601,0
21401,-0.23400001,1.14495,9.5130005,-0.072,0.203,-0.118,-0.137,0.931,9.761,-0.1507,0.14905,0.113575,0.046025,0.013764,0.143469,0.988488,0
21442,0.16995001,1.27695,9.934051,0.347,0.353,0.166,-0.183,0.913,9.762,-0.0144375,0.225775,0.1956625,0.044751,0.016124,0.146726,0.988032,0
21481,-0.21900001,1.62195,9.42195,0.016,0.651,-0.344,-0.234,0.969,9.755,0.0506,0.089375,0.1637625,0.047124,0.019243,0.149868,0.987394,0
21521,0.20805001,1.6650001,9.655951,0.457,0.63,-0.105,-0.253,1.031,9.748,0.0303875,0.124437496,0.2457125,0.050057,0.020868,0.153569,0.986648,0
21561,0.112950005,1.4970001,10.498951,0.37,0.423,0.742,-0.261,1.061,9.745,-0.0730125,0.1500125,0.1615625,0.051784,0.021519,0.157746,0.985886,0
21601,-0.46095002,1.38495,11.418,-0.162,0.305,1.67,-0.287,1.07,9.743,0.0889625,0.089375,0.252175,0.05157,0.023296,0.161062,0.98532,0
21642,-0.50895,1.74405,10.22595,-0.18,0.568,0.484,-0.323,1.174,9.73,0.24447499,0.1010625,0.4076875,0.056382,0.026323,0.167197,0.983957,0
21681,0.40500003,1.4680501,9.913051,0.66,0.21,0.178,-0.265,1.246,9.723,-0.1166,-0.1610125,0.3267,0.060285,0.024275,0.174721,0.98247,0
21721,0.12900001,0.50805,11.920951,0.293,-0.625,2.177,-0.171,1.129,9.739,-0.329725,-0.028875,0.17655,0.055177,0.018922,0.178598,0.982191,0
21761,-0.813,0.40800002,10.8490505,-0.618,-0.643,1.092,-0.185,1.038,9.749,0.24447499,0.020075,0.24035,0.050522,0.019061,0.18223,0.981771,0
21801,-0.744,1.02795,8.84895,-0.548,-0.188,-0.84,-0.2,1.169,9.734,0.4659875,-0.115225,0.3394875,0.057233,0.021233,0.187471,0.980371,0
21842,0.25605002,1.08105,8.208,0.325,-0.225,-1.516,-0.101,1.333,9.715,0.27005,-0.2952125,0.2255,0.065875,0.018234,0.192484,0.978916,0
21881,-0.10395,0.47505003,9.144,-0.094,-0.866,-0.576,0,1.329,9.716,-0.1731125,-0.0906125,-0.103675,0.066671,0.013169,0.193077,0.978827,0
21921,-0.81495005,0.064950004,10.639951,-0.789,-1.126,0.902,-0.014,1.181,9.735,-0.1838375,0.020075,-0.137775,0.057204,0.012931,0.18979,0.980071,0
21961,-1.1029501,0.66195005,9.58005,-0.968,-0.447,-0.168,-0.121,1.1,9.743,0.1486375,0.038225,0.0507375,0.05404,0.016677,0.1884,0.980462,0
22002,-0.17595,1.365,8.481,-0.03,0.19,-1.263,-0.133,1.171,9.735,0.0985875,-0.0268125,0.099825,0.057457,0.018064,0.189961,0.979942,0
22041,-0.279,1.7220001,8.466001,-0.148,0.493,-1.271,-0.124,1.222,9.729,0.0143,-0.0427625,0.0103125,0.060107,0.018155,0.190517,0.979673,0
22081,-0.36495003,1.7170501,9.118051,-0.237,0.478,-0.615,-0.116,1.237,9.727,-0.17105,-0.0320375,-0.0664125,0.060955,0.017834,0.189526,0.979819,0
22121,-0.231,1.54005,9.526951,-0.107,0.318,-0.208,-0.123,1.22,9.729,-0.093225,-0.0149875,-0.09625,0.060071,0.017947,0.187682,0.980226,0
22162,-0.69795,1.641,9.658951,-0.547,0.415,-0.072,-0.146,1.219,9.729,-0.0815375,-0.0405625,-0.106837496,0.059812,0.018916,0.185112,0.980713,0
22201,-0.10395,1.7770501,9.795,0.049,0.536,0.065,-0.144,1.233,9.727,0.009075,0.004125,-0.069575,0.06061,0.018851,0.183306,0.981004,0
22241,-0.372,1.8610501,9.8220005,-0.217,0.576,0.098,-0.15,1.275,9.722,0.0207625,-0.0353375,-0.154825,0.062714,0.019376,0.180797,0.981327,0
22281,-0.44205,1.6099501,10.806001,-0.294,0.295,1.083,-0.141,1.311,9.717,0.0548625,-0.1194875,-0.16225,0.064673,0.019011,0.177138,0.981874,0
22321,-0.29295,1.71,10.434001,-0.167,0.332,0.723,-0.118,1.37,9.709,0.1848,-0.115225,-0.1452,0.067909,0.01816,0.173757,0.982276,0
22362,0.132,1.4830501,10.417951,0.185,0.035,0.705,-0.062,1.435,9.7,0.094325,-0.1940125,-0.237875,0.071757,0.015659,0.169709,0.982753,0
22401,0.402,0.89400005,10.34595,0.37,-0.547,0.636,0.024,1.432,9.701,-0.06765,-0.249425,-0.324225,0.072437,0.010789,0.163794,0.983772,0
22441,-0.049050003,0.36195,11.50695,-0.141,-0.95,1.776,0.1,1.304,9.718,-0.3542,-0.1428625,-0.356125,0.066664,0.005365,0.156338,0.985436,0
22481,-0.10695001,0.53205,11.304001,-0.108,-0.667,1.674,0.032,1.143,9.739,0.0463375,0.39833748,-0.1398375,0.05809,0.006859,0.151629,0.986705,0
22521,-0.483,1.3270501,8.809051,-0.381,0.063,-0.926,-0.094,1.257,9.725,0.427625,-0.0396,-0.0589875,0.063206,0.014435,0.149443,0.986642,0
22562,0.44505003,1.02495,8.983951,0.447,-0.34,-0.815,-0.039,1.375,9.709,0.1071125,-0.0746625,-0.0972125,0.069345,0.012325,0.147562,0.986541,0
22601,0.64395005,0.73800004,9.558001,0.648,-0.628,-0.163,-0.008,1.363,9.711,0.009075,0.0275,-0.1739375,0.068915,0.010571,0.144834,0.986996,0
22641,0.48795003,0.702,9.711,0.446,-0.607,-0.008,0.03,1.301,9.719,-0.06655,0.0658625,-0.237875,0.066067,0.007854,0.140925,0.987782,0
22682,-0.30495003,0.97005004,9.27795,-0.266,-0.3,-0.448,-0.032,1.267,9.724,0.056925,0.1436875,-0.12815,0.063904,0.010542,0.136802,0.988478,0
22721,0.010050001,1.2430501,8.80395,0.047,-0.043,-0.923,-0.047,1.283,9.722,-0.007975,-0.0438625,-0.0408375,0.064632,0.011291,0.135203,0.988643,0
22761,0.18405001,1.5139501,8.778001,0.187,0.195,-0.979,-0.037,1.274,9.723,-0.094325,-0.0086625,0.00715,0.064206,0.010662,0.134451,0.98878,0
22801,1.05795,1.5880501,9.498,1.009,0.334,-0.233,0.038,1.245,9.727,-0.2424125,0.0595375,-0.052525,0.063302,0.006598,0.134478,0.98887,0
22841,-0.19095,1.3579501,9.469951,-0.202,0.158,-0.268,0.012,1.19,9.734,-0.1188,0.0595375,-0.155925,0.060344,0.007407,0.13171,0.989422,0
22882,-0.33705002,1.45605,9.393001,-0.283,0.295,-0.462,-0.017,1.158,9.738,-0.20185,0.0435875,-0.018424999,0.058534,0.008549,0.129649,0.989793,0
22921,0.01905,1.4280001,9.976951,0.06,0.308,0.226,-0.047,1.107,9.743,-0.0900625,0.01265,0.10835,0.055768,0.009786,0.130562,0.989821,0
22961,0.24705002,1.6860001,10.320001,0.262,0.558,0.567,-0.017,1.117,9.742,-0.0176,0.0072875,0.0774125,0.056437,0.008438,0.131916,0.989616,0
23001,0.034050003,1.6620001,9.948001,0.045,0.476,0.208,-0.018,1.184,9.734,0.1901625,0.04675,0.097625,0.059848,0.009024,0.133566,0.989189,0
23041,0.35205,1.89495,9.99195,0.371,0.637,0.257,-0.03,1.256,9.725,-0.0889625,0.16499999,0.091299996,0.063377,0.010255,0.135162,0.988741,0
23081,-0.30495003,1.58595,10.87005,-0.216,0.345,1.14,-0.083,1.234,9.728,0.0708125,0.18315,0.0433125,0.061915,0.012848,0.136522,0.988616,0
23122,-0.31995,1.7200501,10.300051,-0.181,0.402,0.579,-0.131,1.313,9.717,0.159225,-0.0374,0.235125,0.065522,0.015982,0.138501,0.988063,0
23162,0.141,1.626,9.40005,0.277,0.254,-0.283,-0.086,1.379,9.708,-0.0378125,0.01155,0.165825,0.06918,0.014437,0.142315,0.987295,0
23202,-0.32895002,1.21905,11.530951,-0.212,-0.081,1.802,-0.113,1.293,9.72,-0.3232625,0.099,0.2041875,0.064251,0.015404,0.145303,0.987178,0
23241,0.333,0.81000006,11.188951,0.412,-0.408,1.451,-0.085,1.212,9.731,0.127325,-0.010725,0.1285625,0.060715,0.013529,0.148755,0.986915,0
23281,-0.83205,1.1380501,9.58005,-0.727,-0.15,-0.147,-0.102,1.28,9.722,0.2519,-0.0055,0.0603625,0.064161,0.01502,0.149708,0.986531,0
23321,-0.34605002,0.95595,8.742001,-0.249,-0.405,-0.98,-0.091,1.359,9.711,0.18053749,-0.1343375,0.0625625,0.067962,0.015103,0.150589,0.986141,0
23361,0.057000004,0.47505003,9.229951,0.133,-0.832,-0.564,-0.051,1.322,9.716,-0.1049125,-0.0033,-0.1175625,0.066323,0.01273,0.149795,0.986407,0
23402,-1.31295,0.216,9.92895,-1.137,-1.009,0.254,-0.115,1.227,9.728,0.0059125,0.0020625,-0.1601875,0.061193,0.015013,0.145909,0.987289,0
23441,-0.564,0.70500004,8.839951,-0.394,-0.524,-0.889,-0.165,1.221,9.728,0.1315875,0.0743875,0.0518375,0.060511,0.017413,0.144902,0.98744,0
23481,-0.96900004,1.0999501,8.814,-0.728,-0.116,-0.94,-0.224,1.233,9.726,0.0048125,0.054175,-0.0419375,0.060703,0.020561,0.14474,0.987391,0
23521,-0.48495004,1.06095,8.707951,-0.209,-0.173,-1.05,-0.267,1.222,9.726,-0.0836,-0.061875,-0.0301125,0.059752,0.022465,0.143628,0.98757,0
23561,-0.92595005,1.0830001,9.5130005,-0.615,-0.072,-0.227,-0.296,1.148,9.734,-0.20405,0.053075,-0.037675,0.05592,0.023364,0.142252,0.987973,0
23601,-0.010950001,1.4640001,9.35505,0.314,0.343,-0.394,-0.314,1.114,9.738,-0.027224999,-0.0033,0.0231,0.054042,0.024002,0.142258,0.988061,0
23641,-0.42795002,1.6720501,8.718,-0.131,0.518,-1.018,-0.291,1.142,9.735,-0.0741125,-0.0672375,-0.1601875,0.055761,0.023026,0.140813,0.988196,0
23681,-0.633,1.7149501,9.37395,-0.307,0.561,-0.364,-0.309,1.128,9.736,-0.21573749,0.0424875,-0.13035,0.055484,0.024171,0.137122,0.988703,0
23721,-0.39600003,1.74405,10.269,-0.049,0.637,0.518,-0.345,1.105,9.737,-0.10175,0.0191125,-0.053625,0.053554,0.025149,0.135256,0.989042,0
23761,-0.71205,1.794,10.497001,-0.37,0.647,0.753,-0.337,1.137,9.734,0.10175,-0.02145,-0.169675,0.05527,0.024847,0.133035,0.989257,0
23801,-0.69600004,1.65495,10.365001,-0.349,0.427,0.64,-0.344,1.22,9.724,0.158125,-0.1749,-0.0653125,0.059539,0.025582,0.129832,0.989416,0
23841,-0.61395,1.8610501,10.92,-0.297,0.552,1.194,-0.315,1.299,9.714,0.2061125,-0.0097625,-0.103675,0.063809,0.024529,0.12803,0.989411,0
23881,-0.13800001,1.8010501,10.41495,0.139,0.371,0.707,-0.275,1.426,9.698,0.228525,-0.341,-0.0727375,0.070845,0.022837,0.125239,0.98933,0
23922,1.077,0.40995002,10.633051,1.119,-1.017,0.921,-0.043,1.426,9.702,-0.0847,-0.4571875,-0.3870625,0.072115,0.011086,0.121157,0.989948,0
23961,-1.1340001,0.69000006,11.536051,-1.11,-0.621,1.803,-0.019,1.302,9.719,-0.1219625,0.2853125,-0.19635,0.066002,0.008543,0.113087,0.991353,0
24001,-0.040050004,1.36995,9.77595,0.122,0.045,0.049,-0.15,1.316,9.716,0.2668875,-0.0044,0.0103125,0.066248,0.015243,0.112668,0.991304,0
24041,0.177,1.18605,9.217951,0.255,-0.205,-0.499,-0.078,1.39,9.707,0.0292875,-0.0842875,-0.1579875,0.07022,0.011744,0.110225,0.991353,0
24081,0.41700003,0.573,10.375051,0.474,-0.778,0.652,-0.065,1.35,9.713,0.0559625,0.0232375,-0.1665125,0.068242,0.010753,0.107056,0.99185,0
24122,-0.08805001,0.58995,9.199051,-0.025,-0.759,-0.52,-0.056,1.345,9.713,0.1049125,0.093637496,-0.24213749,0.06818,0.010028,0.102448,0.992348,0
24161,-0.72,0.85995007,8.907001,-0.559,-0.475,-0.82,-0.148,1.333,9.714,0.0559625,0.0776875,-0.0578875,0.067079,0.014339,0.099069,0.992713,0
24201,-0.21405001,1.0020001,8.61495,-0.033,-0.327,-1.107,-0.171,1.322,9.715,-0.0517,-0.0257125,0.0242,0.066067,0.015392,0.098562,0.992816,0
24241,-0.10005,1.0180501,8.971951,0.078,-0.268,-0.802,-0.146,1.262,9.723,-0.1848,-0.0055,0.055,0.063295,0.013797,0.099022,0.992974,0
24281,-0.13995,1.0849501,10.104,0.023,-0.096,0.357,-0.159,1.172,9.734,-0.1529,0.037125,0.17435,0.05878,0.014152,0.100871,0.99306,0
24322,0.65595,1.5979501,8.538,0.823,0.392,-1.154,-0.114,1.173,9.735,-0.0048125,0.0158125,0.099825,0.059015,0.012084,0.10414,0.992736,0
24361,-0.13305001,1.6140001,8.682,-0.001,0.423,-1.058,-0.121,1.183,9.734,-0.1518,0.122375,0.1359875,0.05931,0.01262,0.105301,0.992589,0
24401,0.84795004,1.626,8.89995,1.048,0.485,-0.844,-0.095,1.148,9.738,-0.37125,0.2960375,0.0028875,0.057537,0.011244,0.107794,0.992443,0
24441,-0.26700002,1.2600001,10.308001,-0.031,0.252,0.544,-0.226,1,9.752,-0.4681875,0.2619375,0.0092125,0.049566,0.017002,0.107276,0.992847,0
24481,-0.96105003,0.90300006,11.869051,-0.611,-0.043,2.108,-0.341,0.942,9.755,0.27115,0.35145,0.014575,0.045942,0.022506,0.107223,0.992917,0
24521,-0.21705002,1.65795,7.7190003,0.244,0.595,-2.03,-0.448,1.052,9.739,-0.160325,0.2853125,0.24887499,0.050911,0.028686,0.109804,0.992233,0
24562,-1.98405,1.62195,12.687,-1.323,0.784,2.931,-0.651,0.836,9.749,-0.7462125,0.4398625,0.462,0.03783,0.038249,0.116769,0.9917,0
