Timestamp,Milliseconds,linear-x,linear-y,linear-z,gravity-x,gravity-y,gravity-z,rotation-x,rotation-y,rotation-z,rotation-w,acc-x,acc-y,acc-z,gyr-x,gyr-y,gyr-z
2022/12/14 18:49,9,-0.27562934,-0.06500772,-0.3929081,0.12808943,-0.049642432,9.805687,-0.006913412,0.001124287,-0.97831345,0.2070114,0.09461975,-0.11424255,9.931,-0.17137146,-0.14779663,-0.035324097
2022/12/14 18:49,41,-0.07832205,-0.16849604,0.48663425,0.15247998,-0.09006678,9.805051,-0.008551437,0.003094826,-0.97837716,0.20662875,0.006027222,-0.23155212,10.390076,-0.07229614,0.01626587,0.013687134
2022/12/14 18:49,80,0.19635986,0.060187638,0.18733692,0.15158151,-0.10099735,9.804958,-0.008628136,0.003436449,-0.97825557,0.20719503,0.4214325,-0.01966858,10.075836,0.012924194,-0.01676941,0.02645874
2022/12/14 18:49,121,0.23738003,0.1363917,0.1593275,0.14357255,-0.08699195,9.805214,-0.008079689,0.002825093,-0.9783301,0.2068745,0.28315735,0.016845703,10.038132,0.053390503,0.04396057,-0.06941223
2022/12/14 18:49,160,-0.04348737,0.038121983,-0.18128395,0.14224954,-0.07359328,9.805343,-0.00794266,0.002162569,-0.9783984,0.20656425,0.23048401,0.028808594,9.787338,-0.004119873,-0.027420044,0.020080566
2022/12/14 18:49,200,-0.13876909,-0.10885591,-0.11547279,0.15093441,-0.07119397,9.80523,-0.008366772,0.001930001,-0.9783478,0.20678942,0.055114746,-0.20103455,9.810684,0.006530762,-0.039138794,0.001968384
2022/12/14 18:49,240,-0.15430966,-0.09960174,-0.006940842,0.17279692,-0.07414404,9.804848,-0.009520549,0.001864538,-0.97813106,0.20776302,0.08024597,-0.17289734,9.901062,-0.005187988,-0.0519104,0.062683105
2022/12/14 18:49,280,0.018692493,0.17262447,-0.06365681,0.18193847,-0.07875257,9.8046465,-0.009945496,0.002057711,-0.97767127,0.2098945,0.22569275,0.06472778,9.995041,-0.031829834,-0.005050659,0.06800842
2022/12/14 18:49,320,-0.24250612,-0.030414797,0.62932205,0.18061326,-0.08067265,9.804655,-0.00980515,0.001894948,-0.9773545,0.21137254,-0.038864136,-0.15254211,10.508591,0.0725708,0.002410889,0.039245605
2022/12/14 18:49,361,-0.014866784,-0.06579412,-0.0809021,0.17446919,-0.026243702,9.805063,-0.008976626,-5.88E-04,-0.9769894,0.2130981,0.1688385,-0.11543274,9.845993,0.14607239,0.010940552,0.060546875
2022/12/14 18:49,400,-0.014545888,-0.0349909,-0.61722755,0.17097346,0.010409417,9.805154,-0.008347192,-0.002475876,-0.97657406,0.21500534,0.17602539,0.034194946,9.219315,0.03315735,0.015197754,0.05203247
2022/12/14 18:49,440,0.11076318,0.092461534,-0.22929955,0.16672206,-0.005646233,9.805231,-0.008406567,-0.001283491,-0.9762344,0.21655056,0.26042175,0.028808594,9.829239,-0.11705017,0.009872437,0.010482788
2022/12/14 18:49,480,-0.057078212,-0.05727531,0.3289671,0.1663378,-0.052696347,9.805099,-0.008973429,9.14E-04,-0.97592294,0.21792896,0.090423584,-0.095687866,10.220093,-0.066970825,-0.03060913,0.041381836
2022/12/14 18:49,520,-0.05103691,-0.018476449,0.078912735,0.17600301,-0.066177666,9.804847,-0.009509718,0.001352874,-0.9754568,0.2199815,0.2268982,-0.107055664,9.998032,-0.013717651,-0.002914429,0.06587219
2022/12/14 18:49,560,0.11578646,0.005371586,0.01870346,0.17084213,-0.06873309,9.804921,-0.009234359,0.001492914,-0.9750901,0.22161195,0.24604797,-0.08731079,9.935776,0.001205444,0.01838684,0.023269653
2022/12/14 18:49,601,0.10007611,-0.057348438,-0.14503765,0.16835034,-0.072408505,9.804937,-0.009180561,0.001768869,-0.9747702,0.22301488,0.25862122,-0.10406494,9.802902,-0.028625488,0.014129639,0.046707153
2022/12/14 18:49,640,0.03775467,-0.022125758,0.077973366,0.16104826,-0.093602866,9.804881,-0.009063022,0.002956443,-0.9745061,0.22415844,0.2376709,-0.16511536,10.106964,-0.05632019,0.019454956,0.046707153
2022/12/14 18:49,680,-0.15657212,-0.12955609,0.4079895,0.15664886,-0.093569845,9.804952,-0.00882744,0.002666034,-0.974294,0.2250914,0.09880066,-0.19026184,10.166824,0.07896423,-0.006103516,0.0541687
2022/12/14 18:49,720,0.2993054,0.14306289,-0.59117126,0.17699479,-0.07703252,9.8047495,-0.009678536,0.001788212,-0.97411865,0.22582294,0.49145508,0.062927246,9.322266,-0.028625488,-0.057235718,0.001968384
2022/12/14 18:49,761,0.06422819,-0.022678792,0.18213081,0.18663752,-0.10873815,9.80427,-0.010522538,0.003252646,-0.9741191,0.22576666,0.22988892,-0.12741089,10.222488,-0.08615112,0.020523071,-0.03211975
2022/12/14 18:49,800,-0.017456979,0.1070521,0.41593742,0.17471458,-0.109710224,9.80448,-0.009807882,0.003286138,-0.97421837,0.2253699,0.14430237,-0.040023804,10.28952,0.06510925,0.04182434,-0.0438385
2022/12/14 18:49,840,-0.09735757,-0.10677647,-0.18039894,0.16850866,-0.08239574,9.804855,-0.009294121,0.002036456,-0.9742253,0.22537638,0.116760254,-0.17649841,9.745438,0.052337646,-7.78E-04,-1.68E-04
2022/12/14 18:49,880,0.06735276,0.008710682,-0.33260632,0.16727486,-0.07971885,9.804899,-0.009256624,0.002160761,-0.9741788,0.22557774,0.24964905,-0.075927734,9.645477,-0.049926758,0.002410889,-0.011886597
2022/12/14 18:49,921,-0.07618813,0.001526713,0.29836655,0.16981936,-0.10306986,9.804638,-0.009689569,0.003231032,-0.97422737,0.22533682,0.028182983,-0.14776611,10.312866,-0.033950806,-0.024215698,-0.016143799
2022/12/14 18:49,960,0.122449175,0.044482216,0.1339035,0.17397402,-0.09609974,9.804636,-0.009706914,0.002643499,-0.9742097,0.22542012,0.28735352,-0.044204712,10.007614,0.053390503,0.006668091,-0.011886597
2022/12/14 18:49,1000,0.092755705,0.07303374,0.013314247,0.1704993,-0.07435089,9.804886,-0.009253056,0.001606256,-0.97429323,0.22508772,0.22988892,0.018035889,9.907043,0.055526733,0.01838684,-0.033187866
2022/12/14 18:49,1040,-0.19808201,-0.09978806,-0.29029942,0.16485299,-0.058863737,9.805087,-0.008882055,0.00103825,-0.97432935,0.22494955,0.019805908,-0.12501526,9.639496,0.002258301,-0.011444092,-1.68E-04
2022/12/14 18:49,1080,-0.053189427,0.025714204,-0.00373745,0.16540116,-0.06754438,9.805022,-0.008990632,0.001497797,-0.9742806,0.22515386,0.21192932,-0.011291504,9.939377,-0.02330017,0.008804321,0.001968384
2022/12/14 18:49,1121,-0.099602416,0.038706414,-0.005036354,0.16160949,-0.074770175,9.805033,-0.008888193,0.001853099,-0.97412854,0.22581206,0.092819214,-0.040023804,9.907043,-0.030761719,-0.008239746,0.030731201
2022/12/14 18:49,1160,0.06548305,0.017197803,0.33043575,0.17064819,-0.079717666,9.804841,-0.009395343,0.001989223,-0.97399,0.22638728,0.21253967,-0.040618896,10.312866,0.026763916,-0.010375977,0.010482788
2022/12/14 18:49,1200,-0.06608237,0.002607908,-0.19703197,0.17450036,-0.053186927,9.804954,-0.009280621,6.23E-04,-0.9739026,0.22677583,0.08024597,-0.07772827,9.638901,0.06510925,-0.011444092,0.020080566
2022/12/14 18:49,1240,0.03806214,-0.043310158,-0.056930542,0.17595531,-0.046054546,9.804963,-0.009320742,2.55E-04,-0.9737425,0.22746119,0.22091675,-0.0687561,9.898071,-0.003067017,-0.011444092,0.012619019
2022/12/14 18:49,1280,-0.05346802,0.022770539,0.061359406,0.18083352,-0.043320466,9.804887,-0.009456603,-2.08E-05,-0.973657,0.22782138,0.15686035,-0.03224182,9.905258,0.027832031,-0.002914429,0.011550903
2022/12/14 18:49,1320,0.013596252,-0.042506386,-0.04181862,0.18299979,-0.04035347,9.804859,-0.009586301,-9.68E-05,-0.9735388,0.22832052,0.17242432,-0.06037903,9.963913,-0.005187988,-0.009307861,0.01473999
2022/12/14 18:49,1361,-0.040495574,-0.004196685,7.62E-04,0.18582511,-0.041541748,9.804801,-0.009745737,-1.14E-04,-0.97340167,0.22889778,0.12155151,-0.03703308,9.91243,-9.31E-04,-0.026351929,0.024337769
2022/12/14 18:49,1400,0.12128821,-0.07078185,-0.0388546,0.19603647,-0.044943135,9.804587,-0.010360844,-3.21E-05,-0.9733752,0.2289834,0.36097717,-0.107055664,9.919617,-0.008392334,-0.011444092,0.012619019
2022/12/14 18:49,1440,-0.036674425,9.26E-04,-0.070607185,0.20302431,-0.047468144,9.804434,-0.01060516,5.89E-06,-0.97332793,0.22917302,0.1359253,-0.06576538,9.832825,-0.005187988,0.004547119,-0.027862549
2022/12/14 18:49,1480,0.005819798,0.043192852,-0.027068138,0.19583465,-0.05703892,9.804528,-0.010386302,5.38E-04,-0.9732421,0.22954673,0.26759338,7.63E-05,9.948944,-0.04460144,0.006668091,-0.002304077
2022/12/14 18:49,1521,-0.032163918,0.034477398,0.19335079,0.20446658,-0.06225872,9.804321,-0.010916881,6.57E-04,-0.97327846,0.22936757,0.1508789,-0.071746826,10.118332,0.009719849,-0.033813477,-0.027862549
2022/12/14 18:49,1560,-0.115707174,-0.0562036,-0.12384987,0.21253675,-0.05874073,9.804171,-0.01128175,4.31E-04,-0.97318554,0.22974432,0.13113403,-0.10166931,9.807098,1.37E-04,-0.031677246,0.01473999
2022/12/14 18:49,1600,0.2485812,-0.002279714,-0.075758934,0.22939384,-0.061171707,9.803776,-0.012277637,3.25E-04,-0.97317064,0.22975662,0.45793152,-0.040618896,9.901657,-0.013717651,-0.029541016,-0.01828003
2022/12/14 18:49,1640,0.051466048,0.044649936,-0.018356323,0.24934486,-0.06317802,9.803276,-0.013230952,1.93E-04,-0.97329825,0.22916254,0.2598114,-0.01727295,9.911835,-0.005187988,-0.045532227,-0.0438385
2022/12/14 18:49,1680,-0.19495198,-0.028808549,-0.07837391,0.25965795,-0.06958422,9.802965,-0.013646763,5.47E-04,-0.97335386,0.22890104,0.018005371,-0.12382507,9.8789215,-0.03288269,-0.010375977,-0.012954712
2022/12/14 18:49,1721,0.22571287,0.042906955,0.15220165,0.25514254,-0.07857908,9.803016,-0.013665843,8.33E-04,-0.9732855,0.22918954,0.5231781,0.022232056,10.038727,0.017181396,-7.78E-04,0.003036499
2022/12/14 18:49,1760,-0.121514946,-0.04511495,-0.043004036,0.26564044,-0.073862724,9.802773,-0.014047496,5.71E-04,-0.9734424,0.2285001,0.16345215,-0.18307495,9.966309,-0.001998901,-0.015701294,-0.021469116
2022/12/14 18:49,1800,0.1692324,0.07452745,0.1605835,0.26683068,-0.061266825,9.802828,-0.013959803,-6.46E-05,-0.9734967,0.22827472,0.48127747,0.016235352,10.020172,0.07577515,0.010940552,-0.015075684
2022/12/14 18:49,1840,-0.07560617,0.028790094,-0.26210022,0.28163564,-0.038357332,9.802531,-0.014429368,-0.00136201,-0.9736837,0.22744212,0.19876099,0.005462647,9.65625,0.008651733,-0.031677246,-0.0395813
2022/12/14 18:49,1880,-0.06832382,0.017730251,0.21680355,0.27918106,-0.040152106,9.802593,-0.014242357,-0.001281773,-0.97374076,0.22721007,0.23947144,-0.01966858,10.219498,0.016113281,0.021591187,-0.016143799
2022/12/14 18:49,1920,-0.0993014,0.01527403,-0.030247688,0.27006358,-0.014671293,9.80292,-0.01349985,-0.002594461,-0.97370976,0.22737718,0.15208435,-0.027450562,9.762207,0.08747864,-0.005050659,-1.68E-04
2022/12/14 18:49,1960,0.01965183,-0.008773852,0.060331345,0.27358443,0.005188664,9.802832,-0.013468884,-0.003529111,-0.9735859,0.22789612,0.33164978,-0.010696411,10.001617,0.04273987,0.009872437,0.015808105
2022/12/14 18:49,2001,-0.07975373,0.00764381,-0.31534767,0.26458654,0.024418315,9.803049,-0.012767384,-0.004338612,-0.9734881,0.2283398,0.18440247,0.009063721,9.629929,0.028900146,0.015197754,0.012619019
2022/12/14 18:49,2040,0.0898298,0.004368817,0.27360535,0.2647096,0.02528678,9.803043,-0.012860339,-0.004403625,-0.973309,0.22909573,0.42082214,0.022232056,10.281143,0.024642944,0.01626587,0.020080566
2022/12/14 18:49,2080,-0.006011307,-0.013653614,-0.19862843,0.2617123,0.042152047,9.803066,-0.012427948,-0.005199522,-0.97326,0.229311,0.20594788,0.031799316,9.709534,0.0256958,0.010940552,0.008361816
2022/12/14 18:49,2120,0.07997465,-0.027584638,0.039340973,0.25883043,0.045593664,9.803128,-0.012309693,-0.005297164,-0.9731192,0.22991171,0.35559082,0.026412964,9.956726,0.013977051,0.008804321,0.01687622
2022/12/14 18:49,2160,-0.10073671,-0.057893574,0.05335045,0.24841608,0.04861698,9.803383,-0.011754929,-0.005330437,-0.97302026,0.23035844,0.10838318,0.008468628,9.985458,0.011856079,0.03970337,0.019012451
2022/12/14 18:49,2201,0.114079654,0.05175335,-0.002451897,0.23956889,0.058235593,9.803551,-0.011192594,-0.005788694,-0.97288096,0.23096295,0.37953186,0.0796814,9.9711,0.032089233,0.01626587,0.012619019
2022/12/14 18:49,2240,-0.004994273,0.045537017,-0.04082489,0.23218966,0.07116138,9.803643,-0.010546669,-0.006304527,-0.9727562,0.23150457,0.1694336,0.09106445,9.87294,0.02357483,0.036499023,-0.001235962
2022/12/14 18:49,2280,-0.02749841,0.013427354,-0.025457382,0.20979653,0.081264526,9.8040695,-0.009349489,-0.006576615,-0.97256124,0.23236607,0.22151184,0.08207703,9.855576,0.034225464,0.026916504,0.034988403
2022/12/14 18:49,2320,-0.026671529,-0.058499247,-0.015191078,0.20141655,0.088499114,9.804182,-0.008921514,-0.006789978,-0.9725113,0.23258568,0.21073914,0.045578003,10.035141,0.010787964,0.002410889,0.03817749
2022/12/14 18:49,2360,-0.030826941,-0.09283881,-0.10942364,0.19722413,0.09341477,9.804222,-0.008595703,-0.006960248,-0.9724701,0.23276502,0.16584778,-0.010101318,9.784348,0.019302368,0.025848389,0.04031372
2022/12/14 18:49,2400,0.2085138,0.0328442,-0.07279968,0.18888685,0.09083797,9.80441,-0.00823907,-0.006678354,-0.9724909,0.23269933,0.3346405,0.1084137,9.860367,-0.02330017,0.05567932,-0.002304077
2022/12/14 18:49,2441,-0.031645715,-0.075359516,-0.023465157,0.17792667,0.08144133,9.804698,-0.007834052,-0.006086944,-0.9725306,0.23256351,0.15447998,0.005462647,9.962723,-0.008392334,0.008804321,0.01687622
2022/12/14 18:49,2480,0.060262904,-0.005422093,0.021040916,0.17327778,0.07925495,9.804799,-0.007653057,-0.005985013,-0.9725348,0.23255481,0.21133423,0.0569458,9.9579315,0.007598877,0.024780273,0.004089356
2022/12/14 18:49,2520,0.05900526,-0.059728682,-0.19567585,0.16727965,0.072079964,9.804958,-0.007440914,-0.005557715,-0.9725493,0.23251131,0.19996643,0.048568726,9.791534,-0.03501892,0.011993408,-1.68E-04
2022/12/14 18:49,2560,0.029133573,-0.028701287,0.001080513,0.16134223,0.055329155,9.805166,-0.007311153,-0.00453496,-0.97270817,0.23187244,0.190979,0.029403687,9.9704895,-0.04248047,0.03010559,-0.021469116
2022/12/14 18:49,2600,0.001014859,-0.012239661,-9.13E-04,0.15091215,0.044669416,9.8053875,-0.006960321,-0.003972302,-0.972752,0.23170978,0.17662048,0.031799316,9.881912,-0.011581421,0.005615234,-0.010818481
2022/12/14 18:49,2640,-0.030094802,0.005468562,-0.006418228,0.14887586,0.036051787,9.805454,-0.006960404,-0.003464996,-0.9727632,0.23167074,0.12992859,0.026412964,9.95134,-0.029693604,0.003479004,-0.010818481
2022/12/14 18:49,2681,0.1278801,0.007771133,0.122532845,0.14916615,0.024022512,9.805487,-0.007088696,-0.002917297,-0.97277737,0.23161481,0.25862122,0.04197693,10.103378,-0.019042969,0.026916504,-0.028930664
2022/12/14 18:49,2720,-0.14578626,-0.02233897,0.03342247,0.1323379,0.024188112,9.805728,-0.006121048,-0.002758043,-0.97262806,0.23227043,0.026382446,0.013244629,9.939377,0.010787964,0.042892456,-0.020401001
2022/12/14 18:49,2760,0.06854515,0.022503037,0.002866745,0.120505236,0.029840805,9.805865,-0.005600581,-0.00291868,-0.9725381,0.23265809,0.1867981,0.031799316,9.882507,0.001205444,0.010940552,-0.015075684
2022/12/14 18:49,2800,-0.03781552,0.011403916,0.07896042,0.118308805,0.027526088,9.805898,-0.005540229,-0.002768185,-0.97254854,0.23261757,0.08204651,0.03779602,10.041718,-0.019042969,-0.005050659,-0.024673462
2022/12/14 18:49,2840,-0.07940873,0.00807802,0.14966774,0.11522399,0.029886402,9.805928,-0.005247192,-0.002886263,-0.9724934,0.23285346,0.028778076,-0.007095337,10.067459,0.028900146,0.013061523,-0.01828003
2022/12/14 18:49,2880,-0.09734256,0.017749298,-0.18558598,0.10139864,0.03719084,9.806056,-0.004608173,-0.00307084,-0.9722963,0.23368628,0.06349182,0.06173706,9.825043,0.003326416,-0.017822266,0.01687622
2022/12/14 18:49,2921,0.07939804,0.066999376,0.018422127,0.108055465,0.037332702,9.805984,-0.004931345,-0.003160095,-0.97221375,0.23402163,0.186203,0.14852905,9.99144,-0.011581421,0.002410889,0.006225586
2022/12/14 18:49,2960,-0.11847314,-0.06798778,0.09581089,0.10772399,0.039974067,9.805977,-0.00482687,-0.003290327,-0.9720582,0.23466732,-0.06100464,-0.03404236,9.953735,0.022506714,-0.010375977,0.001968384
2022/12/14 18:49,3000,0.11534726,0.017194115,-0.21794605,0.110980935,0.038057316,9.805948,-0.005168295,-0.003170319,-0.9719739,0.23501065,0.31547546,0.031204224,9.688583,-0.03288269,-0.014633179,0.01687622
2022/12/14 18:49,3040,0.11015302,-0.046109457,0.075078964,0.124121286,0.024927093,9.805833,-0.005848032,-0.002639843,-0.97198653,0.234949,0.14729309,-0.03642273,10.0052185,-0.028625488,0.020523071,-0.03211975
2022/12/14 18:49,3080,-0.03026411,0.047997788,0.18526077,0.1101768,0.02092386,9.806008,-0.005103712,-0.002361986,-0.9719205,0.23524223,0.049728394,-0.022064209,10.132706,0.018249512,0.03010559,-0.014022827
2022/12/14 18:49,3121,-0.11649008,0.017504547,-0.11128235,0.09659836,0.0303249,9.806128,-0.004405508,-0.00269278,-0.9717637,0.23589973,0.031173706,0.012649536,9.8471985,0.013977051,-0.009307861,0.007293701
2022/12/14 18:49,3160,0.09008855,-0.014277183,-0.3473673,0.10648397,0.022090303,9.806047,-0.00500885,-0.002378403,-0.97161525,0.2365016,0.19038391,-0.008300781,9.561691,-0.071243286,-0.02848816,-0.001235962
2022/12/14 18:49,3200,0.032954544,-0.015249142,0.52481174,0.11239167,-0.015599612,9.805993,-0.005756045,-5.82E-04,-0.9716264,0.23645025,0.07546997,-0.020263672,10.548691,-0.057388306,0.036499023,-0.028930664
2022/12/14 18:49,3240,-0.17840125,-0.01576006,0.20670605,0.098511085,-0.008004651,9.806152,-0.004963287,-9.66E-04,-0.9715697,0.23669972,-0.08135986,0.04019165,10.081833,0.0683136,-0.012496948,0.02859497
2022/12/14 18:49,3280,0.17600459,0.016116593,-0.021678925,0.10465671,0.016981456,9.806076,-0.004897507,-0.002231167,-0.971416,0.23732245,0.19937134,0.001281738,9.949554,0.05445862,0.019454956,0.008361816
2022/12/14 18:49,3320,-0.003011584,-0.09658052,-0.16684246,0.09495143,0.040789075,9.806106,-0.004186938,-0.003282386,-0.9713424,0.23762505,0.112579346,-0.12321472,9.75502,0.052337646,-7.78E-04,0.011550903
2022/12/14 18:49,3360,0.026066005,-0.007473361,-0.17332172,0.09699137,0.051516406,9.806035,-0.00417016,-0.003757004,-0.97130895,0.23775497,0.1179657,0.0395813,9.737061,0.013977051,0.001342773,0.001968384
2022/12/14 18:49,3401,-0.09683459,0.012494367,-0.16413021,0.097198375,0.04569843,9.806062,-0.004308654,-0.003337598,-0.9712784,0.23788334,0.018005371,0.074905396,9.7999115,-0.047805786,-0.011444092,0.017944336
2022/12/14 18:49,3440,-0.16421813,0.009080574,0.21659946,0.10079712,0.027194446,9.806094,-0.004709304,-0.002519143,-0.9711083,0.23857929,-0.010726929,0.017440796,10.107559,-0.024368286,-0.01889038,0.039245605
2022/12/14 18:49,3480,-0.020962782,0.045384496,-0.019631386,0.10501337,0.022951934,9.806062,-0.004918293,-0.002418282,-0.97089386,0.23944734,0.07067871,0.062332153,9.91124,-0.010513306,-0.008239746,0.04031372
2022/12/14 18:49,3520,-0.07762269,-0.041902307,0.0477705,0.10390477,0.022259166,9.806074,-0.004871001,-0.002372237,-0.9708064,0.23980321,0.029968262,0.002471924,9.969299,-0.003067017,0.01626587,0.019012451
2022/12/14 18:49,3560,-0.06772262,0.012392389,0.129735,0.09231115,0.021236842,9.806192,-0.004282017,-0.002195627,-0.9706333,0.24051565,0.09820557,-0.004699707,10.102783,0.007598877,0.011993408,0.045639038
2022/12/14 18:49,3601,0.13157767,-0.044208117,-0.036414146,0.09469743,0.023937825,9.806164,-0.004406281,-0.002340088,-0.9705473,0.24085894,0.17182922,-0.052597046,9.922607,0.009719849,0.008804321,0.034988403
2022/12/14 18:49,3640,-0.05623138,-0.047939196,0.063503265,0.08954026,0.021416456,9.806218,-0.004112314,-0.002160845,-0.9705695,0.2407763,0.112579346,0.05215454,10.0842285,0.002258301,0.025848389,0.04031372
2022/12/14 18:49,3680,0.006452508,-0.016060732,0.04107189,0.08960237,0.03598396,9.806175,-0.003966102,-0.00298043,-0.9705529,0.24083683,0.020996094,0.003067017,9.895081,0.0491333,-0.010375977,0.010482788
2022/12/14 18:49,3720,0.12608229,-0.019155566,-0.45365047,0.098432325,0.039700847,9.806075,-0.00450453,-0.003061147,-0.9706796,0.24031527,0.22569275,0.033599854,9.530563,-0.05206299,-0.017822266,0.004089356
2022/12/14 18:49,3760,-5.02E-04,-0.088671684,0.35555935,0.104949094,0.011116169,9.806082,-0.005063571,-0.001732799,-0.97078127,0.23990634,0.059310913,-0.047210693,10.370331,-0.036087036,0.002410889,-0.001235962
2022/12/14 18:49,3801,0.06627765,-3.38E-04,0.12725067,0.1074429,0.019436559,9.806043,-0.005080758,-0.002275542,-0.970817,0.23975673,0.21073914,0.013854981,9.9657135,0.05126953,-0.008239746,-0.002304077
2022/12/14 18:49,3840,9.87E-04,-0.009017419,-0.23787975,0.11050802,0.030277753,9.805981,-0.005104136,-0.002848571,-0.9708806,0.23949243,0.10119629,-0.010696411,9.692169,-0.001998901,-7.78E-04,-0.021469116
2022/12/14 18:49,3880,0.016114064,-0.037452206,0.15902424,0.11066041,0.023776142,9.805998,-0.005185063,-0.002519405,-0.97101396,0.23895323,0.114364624,-0.01727295,10.096191,-0.003067017,0.002410889,-0.026794434
2022/12/14 18:49,3920,-0.037345007,0.03661883,-0.07619095,0.11232222,0.026287574,9.805972,-0.005278766,-0.002677969,-0.97112423,0.23850094,0.116760254,0.058135986,9.843002,1.37E-04,-0.017822266,-0.019348145
2022/12/14 18:49,3960,0.001106001,0.03281998,0.09183407,0.11718987,0.026192816,9.805914,-0.005497378,-0.002747959,-0.9712101,0.23814514,0.12214661,0.021636963,10.007614,0.007598877,-0.008239746,-0.020401001
2022/12/14 18:49,4001,-0.023008965,-0.017442856,-0.075099945,0.121531144,0.025885334,9.805862,-0.005736708,-0.002704671,-0.9713418,0.23760249,0.07485962,-0.008300781,9.908844,-0.019042969,-0.012496948,-0.020401001
2022/12/14 18:49,4040,-0.081317164,-0.047181986,0.22505951,0.12074171,0.025673246,9.805873,-0.005604287,-0.002819883,-0.97139937,0.23736861,-0.007141113,-0.013687134,10.060883,0.045944214,0.001342773,-0.025726318
2022/12/14 18:49,4080,-0.052698143,-0.07112594,-0.35899544,0.11777754,0.032209594,9.805889,-0.005453414,-0.002903589,-0.97145987,0.23712353,0.052719116,-0.049591064,9.588028,-0.031829834,-0.003982544,-0.008682251
2022/12/14 18:49,4120,0.042818584,0.008882593,0.16364384,0.116318606,0.007571733,9.805958,-0.005717476,-0.00166692,-0.97161007,0.236513,0.20774841,0.04437256,10.1285095,-0.055252075,0.006668091,-0.006561279
2022/12/14 18:49,4161,-0.027902178,-0.025078207,0.12813568,0.12038081,-0.002040966,9.805911,-0.005989305,-0.001346104,-0.97178596,0.2357845,0.064697266,-0.022659302,10.061478,0.005462647,0.001342773,-0.014022827
2022/12/14 18:49,4200,-0.028458402,0.07395978,-0.10088539,0.117406,0.001822965,9.805948,-0.00579624,-0.001498733,-0.97191125,0.23527145,0.10119629,0.08508301,9.826248,-0.012649536,0.010940552,-0.009750366
2022/12/14 18:49,4240,-0.051550925,-0.036016736,0.1548357,0.10829756,-0.007197399,9.806049,-0.005410066,-8.73E-04,-0.9720068,0.23488887,0.07426453,-0.016677856,10.123123,-0.022232056,0.01626587,0.003036499
2022/12/14 18:49,4280,-0.10550915,-0.026787326,-0.052615166,0.09880572,-0.006554276,9.80615,-0.004929876,-9.05E-04,-0.9720641,0.23466212,0.028182983,-0.011291504,9.838821,0.028900146,0.002410889,0.017944336
2022/12/14 18:49,4320,0.03643173,0.06480919,-0.17519855,0.09503615,-0.005100251,9.806189,-0.004804804,-8.04E-04,-0.97206175,0.23467465,0.18380737,0.021636963,9.879517,-0.04034424,0.009872437,0.024337769
2022/12/14 18:49,4360,8.16E-04,-0.027138785,0.23250866,0.095849924,-0.015370188,9.8061695,-0.004904267,-3.78E-04,-0.97212577,0.23440836,0.044937134,0.001876831,10.115341,-9.31E-04,0.005615234,0.015808105
2022/12/14 18:49,4401,-0.008720405,-0.015453166,-0.12709522,0.09017156,-0.013316946,9.806227,-0.004630828,-3.93E-04,-0.97220576,0.23408195,0.14369202,-0.03642273,9.79393,-0.007324219,0.007736206,0.039245605
2022/12/14 18:49,4440,0.11315414,0.032940175,-0.105508804,0.08929307,-0.02121824,9.80622,-0.004618966,1.32E-04,-0.97231644,0.23362234,0.17602539,-0.022064209,9.823853,-0.049926758,0.054611206,0.004089356
2022/12/14 18:49,4480,-0.10111333,-0.086706705,0.32750607,0.07267986,-0.041653723,9.806293,-0.004028734,0.001262444,-0.97241503,0.23321928,-0.02508545,-0.10166931,10.231461,-0.005187988,0.013061523,0.012619019
2022/12/14 18:49,4520,0.050220907,-0.06427193,-0.023428917,0.07505225,-0.03628517,9.806295,-0.004183963,8.31E-04,-0.9725375,0.232707,0.15447998,-0.023254395,9.864548,0.029968262,-0.009307861,-0.002304077
2022/12/14 18:49,4560,-0.009217836,0.007231422,-0.21444607,0.080038704,-0.02949884,9.806279,-0.004318583,5.15E-04,-0.9726555,0.23221199,0.06588745,-0.035827637,9.749634,-0.006256104,0.002410889,-0.002304077
2022/12/14 18:49,4601,0.007271089,-0.034568124,0.09531784,0.07973239,-0.037287556,9.806255,-0.0044725,9.90E-04,-0.97275877,0.23177435,0.107788086,-0.063964844,10.134506,-0.017974854,-0.008239746,0.004089356
2022/12/14 18:49,4640,0.002391398,0.012595966,-0.06873894,0.08447477,-0.03655309,9.806218,-0.004609094,7.97E-04,-0.9728438,0.2314152,0.05810547,-0.004699707,9.804703,0.006530762,-0.002914429,9.00E-04
2022/12/14 18:49,4680,0.005271867,0.05665616,-0.017663002,0.08375265,-0.036624625,9.806224,-0.004567897,8.41E-04,-0.9728963,0.23119523,0.07485962,-0.028656006,9.958527,-0.008392334,0.005615234,-1.68E-04
2022/12/14 18:49,4720,0.042761587,-0.022807993,0.12534046,0.085406326,-0.039714575,9.806197,-0.004715437,9.78E-04,-0.97298294,0.23082672,0.079055786,-0.06994629,10.12912,-0.003067017,-0.002914429,-0.016143799
2022/12/14 18:49,4760,-0.087998986,-0.041131455,0.015913963,0.07972806,-0.0363795,9.806259,-0.004316961,8.26E-04,-0.97299904,0.23076743,-0.009536743,-0.049591064,9.87233,0.0256958,0.006668091,-0.001235962
2022/12/14 18:49,4800,0.013012476,0.025727918,-0.14588451,0.07639789,-0.03061063,9.806305,-0.004152287,6.42E-04,-0.97304726,0.23056749,0.08444214,-0.026855469,9.796921,-0.010513306,0.003479004,0.001968384
2022/12/14 18:49,4841,-0.016261972,0.067647874,-0.10143757,0.0719703,-0.038946375,9.806308,-0.004028069,0.001087651,-0.9731331,0.23020545,0.12513733,0.019241333,9.843002,-0.047805786,0.024780273,0.003036499
2022/12/14 18:49,4880,-0.11210627,-0.051350772,0.23749447,0.052234203,-0.060621206,9.806323,-0.003302085,0.002396319,-0.9732436,0.22973967,-0.0370636,-0.087905884,10.270966,-0.049926758,0.057800293,-1.68E-04
2022/12/14 18:49,4920,-0.084407955,-0.03316748,0.28271103,0.03897623,-0.062481042,9.806374,-0.002597738,0.00251956,-0.97337896,0.22917315,-0.026290894,-0.09628296,10.160233,0.057662964,0.006668091,-0.004425049
2022/12/14 18:49,4960,-0.0035729,0.003279381,-0.14580345,0.037489634,-0.04326031,9.806482,-0.002365553,0.001613835,-0.9734063,0.22906744,0.06349182,-0.03703308,9.792725,0.034225464,-0.006103516,0.02859497
2022/12/14 18:49,5001,0.07369964,-0.028106786,-0.12653065,0.043374635,-0.040393278,9.806471,-0.002668943,0.001548317,-0.9734793,0.22875449,0.09402466,-0.08970642,9.840012,-0.014785767,-0.002914429,0.01687622
2022/12/14 18:49,5040,0.05906112,0.012481138,-0.02648735,0.04573287,-0.051224265,9.806409,-0.00291216,0.002066529,-0.97359306,0.22826256,0.14907837,-0.04360962,9.950745,-0.029693604,0.003479004,0.007293701
2022/12/14 18:49,5080,0.08896536,0.055716436,0.111501694,0.049578127,-0.056651033,9.806361,-0.00312884,0.002244419,-0.97376186,0.22753692,0.13172913,-0.035827637,10.089615,-0.007324219,0.007736206,-0.008682251
2022/12/14 18:49,5120,-0.03574318,-0.027853902,0.08209705,0.048556987,-0.0529954,9.806387,-0.002991334,0.002049323,-0.9739481,0.22674191,0.04135132,-0.13578796,9.957321,0.024642944,0.007736206,-0.014022827
2022/12/14 18:49,5160,-0.036688983,-0.035631526,-0.06018448,0.043025974,-0.049773075,9.806429,-0.002680177,0.001976339,-0.9740764,0.2261949,0.023986816,-0.04840088,9.845993,1.37E-04,0.007736206,-0.005493164
2022/12/14 18:49,5200,-0.019014362,-0.019603971,0.027116776,0.040934157,-0.049949925,9.8064375,-0.00263445,0.002014002,-0.97418386,0.22573169,0.029373169,-0.0867157,9.956726,-0.001998901,-0.011444092,0.007293701
2022/12/14 18:49,5240,0.090518504,-0.037312288,0.010258675,0.04979629,-0.052850228,9.806381,-0.003080209,0.002054134,-0.9743415,0.22504427,0.13652039,-0.0687561,9.927994,-0.012649536,-0.006103516,-0.008682251
2022/12/14 18:49,5281,-0.061792023,-0.006060507,0.13916683,0.051231418,-0.055311404,9.806361,-0.003145471,0.00213985,-0.97442955,0.22466092,-0.040649414,-0.06455994,10.027954,0.012924194,-0.002914429,-0.010818481
2022/12/14 18:49,5320,-0.046231065,0.057991028,-0.043557167,0.04945566,-0.04734526,9.806412,-0.00298457,0.001724806,-0.9744677,0.22450121,0.003631592,-0.002914429,9.863358,0.020370483,-0.011444092,9.00E-04
2022/12/14 18:49,5360,0.01073293,-0.03008189,-0.16295433,0.05205385,-0.045233183,9.806407,-0.003106355,0.001735716,-0.97455084,0.22413835,0.03236389,-0.0867157,9.828049,-0.024368286,2.75E-04,0.005157471
2022/12/14 18:49,5400,5.93E-04,-0.021129642,0.116903305,0.052018944,-0.057303715,9.806344,-0.003273976,0.00226698,-0.9746583,0.22366336,0.04135132,-0.08192444,10.036331,-0.006256104,-0.012496948,0.001968384
2022/12/14 18:49,5440,-7.62E-04,0.06914456,-0.04424858,0.05746309,-0.05423591,9.806332,-0.00348615,0.001991707,-0.9747254,0.22337021,0.062301636,0.031204224,9.883713,0.004394531,-0.007171631,9.00E-04
2022/12/14 18:49,5481,0.051486596,0.012339313,-0.17351341,0.056450184,-0.051961225,9.80635,-0.003392251,0.002018365,-0.9747671,0.22318943,0.006637573,-0.042419434,9.788544,-0.03501892,0.004547119,-0.006561279
2022/12/14 18:49,5520,-0.004265677,-0.004891612,0.1874361,0.050903488,-0.063877426,9.80631,-0.003227781,0.002624539,-0.9748103,0.22299686,0.04374695,-0.08432007,10.081833,-0.005187988,0.010940552,0.001968384
2022/12/14 18:49,5560,-0.007073898,-0.03144317,-0.14183426,0.046588946,-0.061003093,9.80635,-0.003014918,0.002496245,-0.97483623,0.22288778,0.019805908,-0.06515503,9.726288,0.004394531,-0.005050659,0.010482788
2022/12/14 18:49,5600,-0.019393168,0.018769495,0.005586624,0.04990141,-0.06422346,9.806313,-0.003234851,0.002641506,-0.9749126,0.22254899,0.05091858,-0.062164307,9.968109,-0.011581421,-0.010375977,0.003036499
2022/12/14 18:49,5640,0.08523228,-0.003541939,-0.18775749,0.05389457,-0.06970878,9.806254,-0.003514568,0.002936565,-0.9750193,0.22207314,0.10958862,-0.054992676,9.6813965,-0.03501892,0.006668091,-0.004425049
2022/12/14 18:49,5680,0.008777719,0.10360565,-0.01787281,0.054693107,-0.09435303,9.806044,-0.003821434,0.004245729,-0.97516054,0.22142564,0.09880066,0.009658814,9.975281,-0.08828735,0.005615234,-0.008682251
2022/12/14 18:49,5721,0.06913294,0.09662506,0.1648407,0.05977838,-0.118438356,9.805753,-0.004353357,0.005352509,-0.97528917,0.22082436,0.040740967,-0.05618286,10.10936,-0.07443237,-0.005050659,-0.020401001
2022/12/14 18:49,5760,0.03355951,0.07407221,0.20926285,0.06554637,-0.13321671,9.805526,-0.004796489,0.00591331,-0.9753982,0.2203189,0.12574768,-0.06994629,10.094391,-0.027557373,-0.005050659,-0.019348145
2022/12/14 18:49,5800,-0.080073796,-0.09945543,0.1336422,0.06274952,-0.13991538,9.805451,-0.004639596,0.006286537,-0.9755242,0.21975325,-0.005340576,-0.20881653,10.107559,0.003326416,0.009872437,-0.015075684
2022/12/14 18:49,5840,-0.0710814,0.012176558,-2.19E-05,0.05764247,-0.1321121,9.805591,-0.004334539,0.005813434,-0.9755705,0.2195668,-5.49E-04,-0.09269714,9.830429,0.038482666,-0.01889038,9.00E-04
2022/12/14 18:49,5880,-0.014929727,-0.05222355,-0.12964249,0.063143514,-0.12719856,9.805622,-0.004565212,0.005620113,-0.9755613,0.21960801,0.026382446,-0.1669159,9.825043,-0.012649536,-0.010375977,0.011550903
2022/12/14 18:49,5921,0.019555353,0.046183556,-0.010059357,0.064557955,-0.13425845,9.805518,-0.004751355,0.00597135,-0.9755088,0.21982785,0.08325195,-0.100479126,9.900467,-0.017974854,-0.007171631,0.013687134
2022/12/14 18:49,5960,-0.048586056,-0.016978964,-0.17326641,0.06983742,-0.1437845,9.8053465,-0.005122853,0.006493432,-0.97549945,0.21984638,-0.011917114,-0.19265747,9.737656,-0.043548584,-0.015701294,0.001968384
2022/12/14 18:49,6000,0.010930754,-0.033021882,-0.05162239,0.074055746,-0.1676451,9.804937,-0.005638082,0.007640927,-0.9754119,0.22018504,0.042541504,-0.14656067,9.807098,-0.06271362,-0.024215698,0.019012451
2022/12/14 18:49,6040,-0.12260028,0.013341546,-0.17953777,0.07747018,-0.20275666,9.804248,-0.006203797,0.009471736,-0.975229,0.22090766,-0.008926392,-0.17948914,9.77298,-0.11491394,-0.01676941,0.027526855
2022/12/14 18:49,6080,0.02889701,0.07977125,0.13764858,0.083017275,-0.24353571,9.803275,-0.006953897,0.011393686,-0.9750589,0.22154447,0.04374695,-0.21598816,10.0513,-0.10533142,-0.012496948,0.01473999
2022/12/14 18:49,6121,-0.07875313,-0.00175032,0.30132008,0.0783837,-0.27439886,9.802497,-0.006986346,0.01287193,-0.97487414,0.22227445,0.061691284,-0.30937195,10.303284,-0.043548584,0.010940552,0.033920288
2022/12/14 18:49,6160,0.027238995,0.07157254,0.18071556,0.06872289,-0.272609,9.80262,-0.006427156,0.012698215,-0.97472006,0.22297579,0.076660156,-0.20162964,10.047104,0.021438599,0.024780273,0.029663086
2022/12/14 18:49,6200,0.03681372,-0.04707545,0.026592255,0.06251237,-0.26470134,9.802877,-0.006124132,0.012443186,-0.9746,0.22352275,0.10598755,-0.33929443,9.993835,0.010787964,0.026916504,0.013687134
2022/12/14 18:49,6240,-0.06052356,-0.11718798,-0.001430512,0.049607627,-0.2657875,9.802922,-0.005432321,0.012654991,-0.9745039,0.22394753,-0.004150391,-0.36921692,9.9657135,0.017181396,0.021591187,0.024337769
2022/12/14 18:49,6281,0.07655156,-0.05716008,-0.030729294,0.043709397,-0.26209497,9.80305,-0.005173315,0.012522383,-0.9743641,0.22456859,0.09941101,-0.27764893,9.925003,0.03315735,0.031173706,0.01687622
2022/12/14 18:49,6320,0.06618251,-0.011004001,-0.1071558,0.03892901,-0.2582553,9.803172,-0.004896088,0.012362823,-0.97431016,0.22481753,0.10240173,-0.24053955,9.884903,0.003326416,0.013061523,0.013687134
2022/12/14 18:49,6360,0.04328533,0.049185574,-0.07307434,0.038787827,-0.25544864,9.803246,-0.004814029,0.01228004,-0.9742524,0.22507395,0.04374695,-0.25250244,9.802902,-0.008392334,0.017318726,-0.001235962
2022/12/14 18:49,6400,0.013986349,-0.029422909,-0.001579285,0.029335618,-0.26089543,9.803135,-0.004454965,0.01265763,-0.97415555,0.22547925,0.09880066,-0.26028442,9.89209,-0.009460449,0.011993408,0.021133423
2022/12/14 18:49,6440,0.049749598,-0.049472958,-0.13639832,0.032751027,-0.27382326,9.8027725,-0.00477493,0.013392078,-0.9741849,0.22530346,-0.004745483,-0.3614502,9.858566,-0.053131104,0.011993408,-0.003356934
2022/12/14 18:49,6481,0.011055766,-0.117522985,0.08472252,0.021621376,-0.30230373,9.801965,-0.004541729,0.014916623,-0.97413903,0.22541067,0.010818481,-0.3734131,10.030945,-0.043548584,0.013061523,0.012619019
2022/12/14 18:49,6520,0.06421435,-0.048010647,0.05033493,0.021714276,-0.31840184,9.8014555,-0.004739672,0.015650522,-0.9741298,0.22539684,0.06707764,-0.3949585,9.981873,-0.022232056,0.019454956,-0.011886597
2022/12/14 18:49,6560,-0.035694305,-0.08178878,0.09749699,0.012230615,-0.33342716,9.800973,-0.004377255,0.016499551,-0.974079,0.2255631,0.006637573,-0.3877716,9.999832,-0.012649536,0.03010559,0.001968384
2022/12/14 18:49,6600,0.031297375,0.060932696,-0.16660023,-1.22E-04,-0.33299834,9.800996,-0.003830765,0.016542893,-0.97399783,0.22591995,0.02218628,-0.24293518,9.743042,-0.014785767,0.038635254,0.007293701
2022/12/14 18:49,6641,-0.033986248,-0.03343028,0.079649925,-0.017493574,-0.3500004,9.800386,-0.003123063,0.01776729,-0.973932,0.22612159,-0.014312744,-0.40394592,10.066269,-0.05845642,0.034362793,9.00E-04
2022/12/14 18:49,6680,-0.018792244,-0.07671374,0.23648167,-0.025928406,-0.36330476,9.799883,-0.002837795,0.018328894,-0.9739339,0.2260726,-0.04484558,-0.41111755,10.148865,0.017181396,0.019454956,0.01473999
2022/12/14 18:49,6720,0.10974777,0.003093272,-0.16690922,-0.034051936,-0.36159,9.799922,-0.002491706,0.018395951,-0.97389805,0.22622555,0.06529236,-0.32911682,9.856766,-0.015838623,0.020523071,0.006225586
2022/12/14 18:49,6760,-0.004522774,-0.03312424,0.17640114,-0.031712167,-0.3618427,9.799922,-0.002610398,0.0182404,-0.97390646,0.22620054,-0.005935669,-0.39317322,10.056686,0.03955078,-0.009307861,0.009414673
2022/12/14 18:49,6800,0.007964822,-0.058070958,-0.13344193,-0.024275707,-0.34854499,9.800425,-0.002808334,0.017542958,-0.9739072,0.22625038,-0.089141846,-0.39016724,9.841217,0.027832031,-0.012496948,-0.003356934
2022/12/14 18:49,6841,-0.03765625,0.029461265,-0.11588955,-0.025934443,-0.3439342,9.800584,-0.002686119,0.01738194,-0.9738374,0.22656451,-0.03765869,-0.37521362,9.844208,0.003326416,0.004547119,0.010482788
2022/12/14 18:49,6880,-0.017618911,-0.053377688,0.087059975,-0.02621725,-0.34912965,9.800399,-0.002761034,0.017684387,-0.9738057,0.2266762,-0.05860901,-0.44763184,10.108765,-0.003067017,-0.010375977,0.004089356
2022/12/14 18:49,6920,-0.06454377,-0.09113926,0.05525112,-0.029197093,-0.34098905,9.800676,-0.002495008,0.017272606,-0.9737744,0.22684543,-0.08554077,-0.4117279,9.936981,0.069381714,0.001342773,0.02645874
2022/12/14 18:49,6960,0.09455775,0.030028075,-0.2921734,-0.023230616,-0.32530096,9.801226,-0.002611182,0.016423997,-0.9737688,0.22693132,0.083847046,-0.33032227,9.634705,0.001205444,-0.001846314,0.003036499
2022/12/14 18:49,7000,-0.019367287,-0.021470845,-0.011178017,-0.020405982,-0.3350594,9.800903,-0.002860676,0.016876703,-0.9738111,0.22671331,-0.045440674,-0.3829956,9.884308,-0.029693604,0.009872437,-0.003356934
2022/12/14 18:49,7040,-0.001309143,-7.29E-04,0.30608273,-0.022847144,-0.34283042,9.80063,-0.002823312,0.017254187,-0.9738238,0.22663097,-0.026290894,-0.33929443,10.181183,0.008651733,-0.003982544,-0.003356934
2022/12/14 18:49,7081,-0.12410967,-0.05789718,0.018911362,-0.025383465,-0.33249614,9.800979,-0.002509499,0.016739095,-0.9738465,0.22657564,-0.16635132,-0.39735413,9.929199,0.043807983,-7.78E-04,-0.005493164
2022/12/14 18:49,7120,0.047907684,0.038440704,-0.22126865,-0.0312463,-0.32068142,9.801355,-0.002143075,0.01623902,-0.9738031,0.2268022,0.052719116,-0.25250244,9.721497,0.009719849,0.015197754,0.001968384
2022/12/14 18:49,7160,-0.016576383,0.025492907,0.00620842,-0.032912128,-0.32632348,9.801165,-0.002105899,0.016697042,-0.9738498,0.22656862,-0.12625122,-0.34648132,10.066864,-0.04248047,0.009872437,-0.010818481
2022/12/14 18:49,7200,0.042426333,0.03776592,0.12878609,-0.037635155,-0.3294516,9.801043,-0.001918631,0.016739732,-0.9738553,0.22654353,0.013214111,-0.27644348,9.984268,0.018249512,0.011993408,-0.006561279
2022/12/14 18:49,7240,0.034430888,-0.011986584,-0.23977089,-0.043660104,-0.32642686,9.801118,-0.001597851,0.016717529,-0.97392595,0.2262436,0.015609741,-0.34527588,9.657455,-0.026504517,0.031173706,-0.01828003
2022/12/14 18:49,7281,-0.077776335,-0.00224939,0.11241913,-0.052271716,-0.34683025,9.800376,-0.001382341,0.01796149,-0.97398627,0.22588994,-0.11009216,-0.38658142,10.053696,-0.050994873,0.009872437,-0.011886597
2022/12/14 18:49,7320,0.059353743,0.06789464,0.04105854,-0.054645862,-0.3603047,9.799876,-0.001474497,0.018582372,-0.97397196,0.22590077,0.049728394,-0.29141235,9.923813,-0.038208008,0.007736206,-1.68E-04
2022/12/14 18:49,7360,-0.001793854,0.019937605,0.2598381,-0.057169847,-0.37293172,9.79939,-0.00143504,0.019212691,-0.9739933,0.22575617,-0.057418823,-0.29919434,10.24823,-0.024368286,0.010940552,-0.011886597
2022/12/14 18:49,7400,0.022240382,0.04145232,0.22896385,-0.057146225,-0.36508036,9.7996855,-0.001339655,0.018666208,-0.9740353,0.22562142,-0.045440674,-0.37400818,10.085419,0.05126953,0.002410889,-0.019348145
2022/12/14 18:49,7441,-0.015377659,-0.078603834,-0.17123413,-0.058731448,-0.34539834,9.80039,-0.001063602,0.01777989,-0.9740739,0.22552775,-0.043640137,-0.43626404,9.761002,0.03955078,-0.006103516,-0.003356934
2022/12/14 18:49,7480,-0.021475893,-0.084482014,0.005880356,-0.055412304,-0.34368154,9.800468,-0.00120643,0.017696356,-0.9741338,0.22527486,-0.10948181,-0.38957214,10.014191,0.011856079,-0.012496948,-0.004425049
2022/12/14 18:49,7520,0.011060149,-0.016470104,-0.044403076,-0.054719076,-0.33566654,9.800752,-0.001132617,0.017218651,-0.97411066,0.22541225,-0.016113281,-0.3434906,9.8076935,0.036346436,2.75E-04,0.007293701
2022/12/14 18:49,7560,-0.073995695,-0.021377772,-0.03655052,-0.05884667,-0.3311818,9.8008795,-8.41E-04,0.017156865,-0.97411275,0.22540905,-0.12265015,-0.3440857,9.9704895,-0.005187988,0.008804321,-0.003356934
2022/12/14 18:49,7600,0.070659906,-0.030407965,-0.13760471,-0.057168048,-0.326635,9.801043,-9.16E-04,0.016884506,-0.9741069,0.22545472,0.018005371,-0.39915466,9.764603,0.018249512,-0.01676941,0.020080566
2022/12/14 18:49,7641,0.066464454,-0.064534634,-0.064525604,-0.05074643,-0.337119,9.800722,-0.001361265,0.01744063,-0.9741593,0.22518355,0.015609741,-0.4051361,9.916626,-0.03715515,0.013061523,0.005157471
2022/12/14 18:49,7680,-0.01587044,0.004162043,0.057312965,-0.05274973,-0.34505153,9.800436,-0.001296883,0.017755812,-0.9741484,0.22520646,-0.08554077,-0.31834412,9.956131,-0.003067017,0.011993408,-0.003356934
2022/12/14 18:49,7720,-0.16073695,-0.02172327,-0.015182495,-0.06309636,-0.35399374,9.8000555,-9.01E-04,0.018453283,-0.97410256,0.22535048,-0.20465088,-0.42010498,10.036942,-0.045669556,0.002410889,0.012619019
2022/12/14 18:49,7760,-0.038076013,-0.013824165,0.2736616,-0.06647399,-0.35846236,9.7998705,-8.18E-04,0.018473193,-0.97408086,0.2254429,-0.09991455,-0.36982727,10.124329,0.03741455,-0.01676941,0.034988403
2022/12/14 18:49,7800,-0.012806922,-0.06571525,-0.36495113,-0.06637106,-0.3515975,9.80012,-7.49E-04,0.018336492,-0.97395295,0.22600631,-0.04963684,-0.43685913,9.631714,-0.024368286,0.013061523,0.022201538
2022/12/14 18:49,7841,0.022472978,-0.020997435,0.3506918,-0.06809738,-0.3710271,9.799392,-9.01E-04,0.01921556,-0.97385895,0.22633761,-0.069381714,-0.35006714,10.358353,-0.017974854,-0.003982544,0.013687134
2022/12/14 18:49,7880,0.003603227,0.00911358,0.10698986,-0.06329383,-0.36150572,9.799781,-0.001064727,0.018548235,-0.9737493,0.22686377,-0.0592041,-0.3249359,10.020767,0.045944214,-0.019958496,0.01687622
2022/12/14 18:49,7920,-0.022323102,-0.0417071,-0.034244537,-0.058906708,-0.34537458,9.80039,-0.001081643,0.017739978,-0.97368294,0.22721273,-0.07298279,-0.38478088,9.924408,0.045944214,-0.013565064,0.009414673
2022/12/14 18:49,7960,0.013378874,-0.15644017,-0.14030647,-0.053804107,-0.3328158,9.800854,-0.001189845,0.01715051,-0.97362673,0.22749822,-0.019104004,-0.46139526,9.791534,0.038482666,0.004547119,-0.004425049
2022/12/14 18:49,8000,-0.080600835,0.060753703,-0.448452,-0.06659266,-0.3294827,9.800887,-4.56E-04,0.017186621,-0.97350913,0.2280009,-0.14241028,-0.24232483,9.478485,-0.003067017,0.031173706,0.003036499
2022/12/14 18:49,8040,-0.005906336,0.24809936,-0.16319466,-0.07034461,-0.3612405,9.799742,-9.05E-04,0.019091932,-0.9732556,0.22892845,-0.062805176,-0.12321472,9.954941,-0.1585846,-0.039138794,0.023269653
2022/12/14 18:49,8081,0.007014509,0.13326612,0.6447897,-0.058850523,-0.4036849,9.7981615,-0.00181563,0.020767385,-0.9729802,0.22994542,-0.11906433,-0.3219452,10.411026,-0.025436401,0.001342773,0.013687134
2022/12/14 18:49,8120,0.105424024,0.007610977,0.10444164,-0.05995499,-0.39534977,9.798494,-0.001596437,0.020198913,-0.97281337,0.23070242,0.03895569,-0.3620453,9.923813,0.055526733,0.020523071,-0.002304077
2022/12/14 18:49,8160,-0.10976241,0.09173992,-0.50597286,-0.07443606,-0.38782775,9.798696,-8.48E-04,0.020293443,-0.9726975,0.23118624,-0.18132019,-0.2866211,9.432404,-0.07443237,0.024780273,0.007293701
2022/12/14 18:49,8200,0.008226633,0.009146899,0.3502264,-0.076305546,-0.42864323,9.79698,-0.001366046,0.022395795,-0.97246015,0.23198667,-0.031677246,-0.46678162,10.324234,-0.09361267,-0.007171631,0.015808105
2022/12/14 18:49,8240,-0.01745686,0.056871116,0.19705105,-0.07957203,-0.4481143,9.796083,-0.001375617,0.023170335,-0.9722432,0.23281832,-0.0657959,-0.3734131,10.100983,-0.009460449,0.015197754,0.037124634
2022/12/14 18:49,8281,0.18488151,0.116467446,0.24682331,-0.08636658,-0.44423223,9.796203,-9.43E-04,0.02298924,-0.9720256,0.23374541,0.06588745,-0.3440857,10.138687,0.024642944,0.021591187,0.012619019
2022/12/14 18:49,8320,0.046059072,0.055017143,-0.009652138,-0.093774095,-0.42369488,9.797045,-3.53E-04,0.0219796,-0.9719508,0.23415457,-0.08314514,-0.3434906,9.868744,0.061920166,0.007736206,0.010482788
2022/12/14 18:49,8360,0.12262619,-0.107064605,-0.1368227,-0.08990257,-0.4067586,9.797798,-3.97E-04,0.0211885,-0.9718468,0.23465857,-0.043640137,-0.5577698,9.785538,0.026763916,2.75E-04,-0.006561279
2022/12/14 18:49,8400,-0.07832668,-0.031696737,-0.2483654,-0.098648295,-0.4083016,9.79765,6.73E-05,0.021564977,-0.97177273,0.2349314,-0.2136383,-0.40992737,9.705338,-0.04673767,0.038635254,0.001968384
2022/12/14 18:49,8441,0.002808787,0.17474794,0.21858883,-0.11286515,-0.43216026,9.7964735,3.93E-04,0.022925023,-0.9715278,0.23581344,-0.02508545,-0.2501068,10.283539,-0.066970825,0.015197754,0.010482788
2022/12/14 18:49,8480,0.09315797,-0.043510586,0.51637554,-0.11423866,-0.4318518,9.796472,5.17E-04,0.022556629,-0.9714349,0.2362312,-0.050827026,-0.44763184,10.321243,0.08747864,0.003479004,-0.01828003
2022/12/14 18:49,8520,0.046842903,0.122976154,-0.5253544,-0.121104114,-0.39331302,9.798012,0.001330987,0.020872248,-0.97144485,0.23634179,-0.0592041,-0.26986694,9.431808,0.040618896,0.023712158,-0.020401001
2022/12/14 18:49,8560,-0.048905134,-0.06793496,0.3101921,-0.1217465,-0.40197822,9.797651,0.001187329,0.02138655,-0.97144085,0.23631321,-0.16694641,-0.46020508,10.276947,-0.029693604,-0.010375977,-0.02999878
2022/12/14 18:49,8600,-0.1758525,0.007030934,0.32839203,-0.1145543,-0.38895893,9.798264,9.78E-04,0.020412242,-0.97141606,0.23650198,-0.29682922,-0.3536682,10.182388,0.08747864,-0.024215698,-0.005493164
2022/12/14 18:49,8641,-0.07480362,0.063289344,-0.14400482,-0.10294666,-0.3532631,9.799745,8.29E-04,0.01874561,-0.9713142,0.2370583,-0.20585632,-0.2872162,9.702347,0.073638916,-0.024215698,0.006225586
2022/12/14 18:49,8680,-0.08432002,0.041357517,-0.087646484,-0.09652893,-0.33523145,9.800443,6.98E-04,0.017698402,-0.9712301,0.23748347,-0.14300537,-0.2824402,9.883713,0.027832031,-0.01676941,0.007293701
2022/12/14 18:49,8720,0.10335952,-0.013350397,0.29789543,-0.08741373,-0.3228729,9.800944,3.75E-04,0.016890315,-0.971138,0.23791932,-0.020904541,-0.38897705,10.254211,0.05873108,-0.029541016,0.006225586
2022/12/14 18:49,8760,0.10504617,-0.031630695,-0.12770557,-0.07697023,-0.28827584,9.80211,3.01E-04,0.01498219,-0.9710752,0.2383032,0.003036499,-0.30218506,9.725098,0.097076416,-0.025283813,0.001968384
2022/12/14 18:49,8800,0.09252067,0.037842035,-0.10304546,-0.06846169,-0.26893008,9.802722,1.06E-04,0.014107871,-0.9711049,0.23823561,-0.05680847,-0.22796631,9.93219,0.016113281,-0.010375977,-0.031066895
2022/12/14 18:49,8840,-0.003997207,-0.015473127,0.23702621,-0.06624791,-0.2552689,9.803103,2.16E-04,0.013275654,-0.97113013,0.23818067,-0.05203247,-0.24533081,10.122528,0.069381714,0.001342773,-0.017211914
2022/12/14 18:49,8881,0.00529822,0.032313347,-0.15648746,-0.06775147,-0.22657971,9.803799,6.32E-04,0.011914787,-0.97121155,0.23791954,-0.06340027,-0.21539307,9.83522,0.050201416,-0.001846314,-0.021469116
2022/12/14 18:49,8920,-0.029376008,-0.03989172,0.020283699,-0.069115,-0.20156012,9.804336,9.78E-04,0.010820598,-0.97123957,0.23785631,-0.09213257,-0.24293518,9.882507,0.069381714,0.002410889,-0.003356934
2022/12/14 18:49,8960,0.02180782,0.09105261,-0.2033577,-0.068454646,-0.1784387,9.804788,0.001226256,0.009667349,-0.97125745,0.23783201,-0.02748108,-0.08251953,9.766983,0.024642944,0.001342773,-0.004425049
2022/12/14 18:49,9000,-0.001928084,0.08461349,0.15726185,-0.06392461,-0.16736032,9.805014,0.001138277,0.008959757,-0.9712345,0.23795377,-0.038864136,-0.074142456,10.069855,0.017181396,-0.010375977,0.004089356
2022/12/14 18:49,9040,0.08965206,0.01443547,-0.11574173,-0.05978812,-0.15301666,9.805274,0.001081826,0.008227072,-0.97123104,0.2379946,0.013809204,-0.11723328,9.838211,0.024642944,2.75E-04,-0.002304077
2022/12/14 18:49,9080,-0.037098717,0.0651281,0.05937195,-0.058440305,-0.14276499,9.805437,0.001214083,0.00769108,-0.97127813,0.23781957,-0.14659119,-0.071746826,10.005814,0.026763916,-7.78E-04,-0.004425049
2022/12/14 18:49,9120,-0.055368412,0.04955505,-0.079517365,-0.061670646,-0.12650192,9.80564,0.001560953,0.006939707,-0.97125363,0.23794067,-0.07237244,-0.10346985,9.903458,0.027832031,0.003479004,0.021133423
2022/12/14 18:49,9161,0.027861182,0.029430576,-0.073610306,-0.060246162,-0.115822256,9.805781,0.001556546,0.006417938,-0.9712846,0.23782888,-0.02748108,-0.08192444,9.926804,0.012924194,-0.007171631,0.020080566
2022/12/14 18:49,9200,7.75E-04,0.011476129,-0.04885292,-0.05802034,-0.10665092,9.805899,0.001616584,0.005917408,-0.9712928,0.23780805,-0.08375549,-0.08850098,9.913635,0.024642944,0.002410889,0.017944336
2022/12/14 18:49,9240,0.078441516,0.033164203,-0.1475048,-0.059969086,-0.09739502,9.805984,0.00179565,0.005509831,-0.97129774,0.23779635,6.41E-04,-0.023254395,9.819061,0.003326416,0.008804321,0.02859497
2022/12/14 18:49,9280,0.02459991,0.062077284,0.09554386,-0.058534756,-0.09580473,9.806007,0.00173821,0.005454054,-0.9713387,0.23763075,-0.038253784,-0.049591064,10.087219,-9.31E-04,0.008804321,0.013687134
2022/12/14 18:49,9320,-0.14742845,0.003523238,0.12639141,-0.06740681,-0.09023304,9.806004,0.00224408,0.005286047,-0.97129196,0.23782128,-0.21243286,-0.03881836,10.042923,0.026763916,0.013061523,0.020080566
2022/12/14 18:49,9361,-0.15223004,0.017390572,-0.06005001,-0.083296865,-0.07374359,9.806019,0.003345242,0.004593248,-0.97115874,0.23836604,-0.20585632,-0.05558777,9.825043,0.03741455,0.017318726,0.043502808
2022/12/14 18:49,9400,-0.08666442,-0.105946064,0.10705376,-0.09516002,-0.06782352,9.805954,0.0039295,0.004506508,-0.9711303,0.23847465,-0.16156006,-0.16271973,10.045914,0.019302368,0.007736206,0.06161499
2022/12/14 18:49,9440,0.16950473,-0.009304896,0.17305374,-0.089737326,-0.054461993,9.806088,0.003751729,0.003613059,-0.9710997,0.23861735,0.0778656,-0.047805786,10.0513,0.061920166,-0.002914429,0.043502808
2022/12/14 18:49,9480,0.10521744,-0.1364689,-0.26224613,-0.0830674,-0.03711825,9.806228,0.003620533,0.002851453,-0.97110754,0.23859781,0.047927856,-0.20822144,9.690369,0.024642944,2.75E-04,0.019012451
2022/12/14 18:49,9521,0.038369156,-0.018200401,-0.06628895,-0.079491735,-0.039850388,9.806247,0.003461487,0.002952841,-0.9711805,0.23830178,-0.0544281,-0.044815063,9.956131,-0.004119873,0.009872437,9.00E-04
2022/12/14 18:49,9560,0.027658768,0.053701695,0.0872097,-0.08070186,-0.036369354,9.806252,0.00351377,0.002705325,-0.97120756,0.23819369,-0.012527466,0.006668091,10.048904,0.017181396,-0.014633179,0.011550903
2022/12/14 18:49,9600,-0.056118406,-0.072509244,-0.22276974,-0.07061011,-0.025565768,9.806363,0.003194837,0.002106785,-0.9713203,0.23774411,-0.10948181,-0.13220215,9.698761,0.017181396,-0.007171631,-0.009750366
2022/12/14 18:49,9640,0.008570612,-0.044271786,0.088477135,-0.07166285,-0.034516852,9.806327,0.003131718,0.002576806,-0.9714179,0.23734121,-0.021499634,-0.06576538,9.984863,-0.016906738,0.005615234,-0.001235962
2022/12/14 18:49,9680,-0.020628773,-0.003392741,0.082470894,-0.06762171,-0.03702798,9.806347,0.002905303,0.002621643,-0.971568,0.2367285,-0.090927124,-0.054382324,9.9262085,0.009719849,-0.009307861,-0.014022827
2022/12/14 18:49,9721,0.036860958,0.11512734,-0.15881538,-0.06739365,-0.03293009,9.806363,0.002941407,0.002444216,-0.9716068,0.23657043,-0.005935669,0.055145264,9.740646,-0.019042969,-0.002914429,-0.010818481
2022/12/14 18:49,9760,0.02435252,-0.011298046,0.18433952,-0.062722735,-0.04136194,9.806362,0.002589707,0.002845502,-0.9717219,0.2360969,-0.050231934,-0.04360962,10.133896,-0.020111084,0.001342773,-0.021469116
2022/12/14 18:49,9800,-0.047627956,-0.015410204,0.061356544,-0.06489022,-0.044956565,9.806332,0.002705182,0.003038776,-0.97176874,0.23590037,-0.10290527,-0.08909607,9.947159,-0.004119873,0.008804321,-0.027862549
2022/12/14 18:49,9840,-0.012949973,-0.024390787,0.029022217,-0.07046149,-0.04760654,9.806282,0.002920541,0.003209843,-0.97178495,0.23582882,-0.050231934,-0.07772827,9.945358,0.001205444,0.004547119,-0.019348145
2022/12/14 18:49,9881,0.008735694,0.052584644,-0.10950279,-0.06765621,-0.047391515,9.806302,0.002783377,0.00317899,-0.97183365,0.23562992,-0.050231934,-0.013092041,9.89209,-0.012649536,0.006668091,-0.019348145
2022/12/14 18:49,9920,-0.07388337,0.05677951,0.05479908,-0.07369311,-0.048468333,9.806253,0.003068789,0.003287413,-0.9717999,0.23576422,-0.13223267,-0.016677856,9.994446,-0.004119873,-7.78E-04,-0.011886597
2022/12/14 18:49,9960,0.02489765,0.055758193,-0.047595024,-0.073865615,-0.04566069,9.806265,0.00309847,0.003139001,-0.97180516,0.23574412,-0.04724121,-0.016677856,9.867538,-0.005187988,-0.001846314,-0.006561279
2022/12/14 18:49,10000,-0.04780233,-0.02837557,0.16103935,-0.07445948,-0.048995506,9.806246,0.00310018,0.003322975,-0.9717823,0.23583567,-0.15797424,-0.06636047,10.103973,-0.001998901,0.015197754,-0.008682251
2022/12/14 18:49,10041,-0.047305845,0.056751974,-0.05978012,-0.08114692,-0.045887846,9.806207,0.00352895,0.003263035,-0.9716964,0.23618442,-0.14898682,0.015640259,9.889099,-0.007324219,0.013061523,-0.006561279
2022/12/14 18:49,10080,-0.13472995,0.003228329,0.14375973,-0.09379618,-0.050637733,9.80607,0.004063672,0.003667247,-0.9716649,0.23629917,-0.22621155,-0.07234192,10.066269,-0.004119873,-0.002914429,0.02859497
2022/12/14 18:49,10120,0.055129357,0.015269287,-0.14210129,-0.09062105,-0.04477945,9.806129,0.003885541,0.003250519,-0.97169024,0.2362043,0.014419556,-0.07115173,9.798111,0.022506714,-0.014633179,0.039245605
2022/12/14 18:49,10160,0.07797788,-0.038053684,-0.08140755,-0.08164903,-0.046547618,9.8062,0.003452844,0.003344483,-0.9717439,0.23598872,-0.029281616,-0.06515503,9.906448,-0.017974854,0.001342773,0.01473999
2022/12/14 18:49,10200,0.017599143,0.044147857,0.17819405,-0.081399955,-0.052640893,9.806171,0.003404325,0.00358587,-0.9717183,0.23609123,-0.09870911,-0.023864746,10.139282,-0.005187988,0.001342773,0.017944336
2022/12/14 18:49,10241,0.01364395,-0.12570235,0.022849083,-0.08161809,-0.05594622,9.80615,0.003370165,0.003754483,-0.97170824,0.23613048,-0.030471802,-0.15075684,9.950745,-9.31E-04,-0.003982544,0.030731201
2022/12/14 18:49,10280,0.13436261,-0.034345154,-0.10391712,-0.07609862,-0.05903777,9.806177,0.003002461,0.003825409,-0.9717532,0.23594946,0.0712738,-0.04840088,9.838821,-0.003067017,2.75E-04,0.011550903
2022/12/14 18:49,10320,0.10561511,-0.021062434,-0.11151886,-0.06875506,-0.061842192,9.806214,0.002592545,0.003917797,-0.9718174,0.23568818,0.08325195,-0.038223267,9.826248,-0.024368286,0.001342773,-1.68E-04
2022/12/14 18:49,10360,0.051453903,-0.048215136,0.13627243,-0.060786564,-0.07580352,9.806169,0.002094378,0.004551718,-0.9719087,0.23530497,-0.041259766,-0.13877869,10.065063,-0.020111084,0.009872437,-0.024673462
2022/12/14 18:49,10400,-0.08313529,0.09216637,0.05777836,-0.06581565,-0.07278996,9.806159,0.002386867,0.00439743,-0.97183824,0.23559575,-0.18011475,0.024017334,9.942368,0.021438599,0.004547119,-0.020401001
2022/12/14 18:49,10440,-0.035416894,0.0735223,-0.11736202,-0.06981214,-0.061223783,9.8062105,0.002743247,0.003855276,-0.9717806,0.2358391,-0.12684631,-0.021469116,9.859161,0.003326416,0.001342773,-1.68E-04
2022/12/14 18:49,10481,-0.06531221,-0.03257221,0.021650314,-0.072816096,-0.06403379,9.806171,0.002841875,0.004095695,-0.9717648,0.23589888,-0.11607361,-0.13339233,10.027954,-0.011581421,2.75E-04,-0.001235962
2022/12/14 18:49,10520,-0.029980376,-0.078984246,0.032203674,-0.07396657,-0.06721842,9.806141,0.002847202,0.004195046,-0.9717633,0.23590337,-0.10769653,-0.11244202,9.983658,0.019302368,-0.009307861,-1.68E-04
2022/12/14 18:49,10560,-0.12617421,0.0079071,-0.087441444,-0.07651526,-0.06497415,9.806136,0.00302644,0.004181749,-0.97169083,0.23619965,-0.17652893,-0.08610535,9.837616,-0.011581421,-0.007171631,0.01473999
2022/12/14 18:49,10601,-0.13945642,-0.09719229,0.1147871,-0.07786497,-0.074070305,9.806062,0.002955826,0.004675672,-0.97165984,0.23631884,-0.20884705,-0.20103455,10.035141,-0.009460449,-0.01676941,0.029663086
2022/12/14 18:49,10640,-0.05965718,-0.098176636,0.011786461,-0.07947994,-0.08013543,9.806001,0.002963433,0.004928501,-0.97158307,0.23662892,-0.08615112,-0.13279724,9.931595,0.010787964,-7.78E-04,0.043502808
2022/12/14 18:49,10680,0.11357261,-1.26E-04,-0.08642292,-0.07356121,-0.07886643,9.806057,0.002642573,0.004767579,-0.9715358,0.23682997,0.035964966,-0.05319214,9.841812,0.001205444,-0.001846314,0.031784058
2022/12/14 18:49,10720,0.062582195,-0.021458246,-0.006710053,-0.064024,-0.08086471,9.8061075,0.002194123,0.004779235,-0.9714922,0.2370133,0.016204834,-0.111846924,9.974091,1.37E-04,-0.005050659,0.007293701
2022/12/14 18:49,10761,-0.023144584,0.011420801,-0.10846996,-0.060681403,-0.0861916,9.806084,0.001941758,0.005075678,-0.97144884,0.237187,-0.0592041,-0.05319214,9.910645,-0.031829834,-7.78E-04,0.017944336
2022/12/14 18:49,10800,0.11057426,-0.026229441,0.12613773,-0.05618612,-0.10157693,9.805963,0.001465523,0.005824615,-0.97142375,0.23727596,0.032974243,-0.15792847,10.165619,-0.04673767,-0.007171631,0.020080566
2022/12/14 18:49,10840,0.09209022,-0.02637551,0.10665703,-0.044977646,-0.10778273,9.805955,8.87E-04,0.005797187,-0.9713724,0.23748937,0.04135132,-0.14117432,10.003418,0.032089233,-0.011444092,0.003036499
2022/12/14 18:49,10880,0.13477924,0.15841517,-0.31743145,-0.039910585,-0.093578406,9.806122,8.20E-04,0.005070559,-0.9712054,0.23818824,0.06529236,0.09585571,9.660446,-0.017974854,0.004547119,0.01473999
2022/12/14 18:49,10920,0.018982228,0.16015734,0.17279911,-0.03551595,-0.090619445,9.806168,6.38E-04,0.004877528,-0.9710504,0.23882417,-0.055618286,0.058135986,10.092606,-0.008392334,-0.011444092,0.015808105
2022/12/14 18:49,10960,0.13438673,0.06324629,-0.030175209,-0.026227651,-0.07822257,9.806303,3.44E-04,0.004192424,-0.9709232,0.23935421,0.056915283,-0.024459839,9.934586,0.015045166,0.002410889,0.024337769
2022/12/14 18:49,11001,0.07220401,-0.046615146,0.03215313,-0.025688218,-0.07255475,9.806349,3.83E-04,0.003905569,-0.9707284,0.24014778,0.031173706,-0.11663818,9.996826,0.02357483,0.01838684,0.045639038
2022/12/14 18:49,11040,0.17919165,-0.06298177,-0.2534771,-0.02466644,-0.07237315,9.806352,3.31E-04,0.003884403,-0.9704877,0.24111907,0.102996826,-0.122024536,9.512604,-0.013717651,-0.002914429,0.031784058
2022/12/14 18:49,11080,0.18428767,0.044959776,0.050073624,-0.008747688,-0.09722286,9.806164,-7.93E-04,0.005062538,-0.97034323,0.24167693,0.12394714,-0.028045654,10.005814,-0.07550049,0.024780273,0.024337769
2022/12/14 18:49,11120,0.2434811,0.05316756,0.52427197,-0.012513229,-0.11251972,9.805997,-6.64E-04,0.00577032,-0.97008324,0.24270317,0.2849579,-0.04121399,10.474472,-0.016906738,0.056747437,0.046707153
2022/12/14 18:49,11161,0.40355694,0.13511631,-0.1284275,-0.010416213,-0.11157617,9.80601,-9.02E-04,0.005714696,-0.96984786,0.24364258,0.42442322,0.018630981,9.763397,-0.029693604,0.004547119,0.008361816
2022/12/14 18:49,11200,0.031316526,0.04060726,-0.026123047,-0.021381676,-0.13140514,9.805747,-4.22E-04,0.00693897,-0.9697432,0.2440283,-0.026290894,-0.07115173,9.967499,-0.057388306,0.07698059,0.004089356
2022/12/14 18:49,11240,0.12395698,0.2530318,-0.10296059,-0.05281432,-0.14700583,9.805407,9.59E-04,0.008039307,-0.9694546,0.24513732,0.03475952,0.113204956,9.965103,-0.029693604,0.087631226,0.03817749
2022/12/14 18:49,11280,0.00406573,0.15836994,0.12476826,-0.08775191,-0.14040922,9.805252,0.002826272,0.007856946,-0.969145,0.24634993,-0.19387817,-0.018478394,10.004013,0.10133362,0.07911682,0.04777527
2022/12/14 18:49,11321,-0.3399182,0.22694543,-0.7052603,-0.114224456,-0.06080682,9.805797,0.004108055,0.00603049,-0.9689411,0.24718387,-0.49674988,0.17964172,9.485077,0.23449707,0.021591187,0.07546997
2022/12/14 18:49,11360,-0.28938314,0.890602,-1.3385954,-0.13281845,0.00143576,9.805751,0.006574486,0.00162531,-0.96810234,0.25046363,-0.42193604,1.0206146,8.988876,-0.03715515,0.017318726,0.11167908
2022/12/14 18:49,11400,-0.23346472,0.69933504,0.49887085,-0.13704664,-0.065747835,9.805472,0.005795959,0.005686223,-0.9673525,0.2533045,-0.45365906,0.5663147,10.561264,-0.29174805,0.015197754,0.05949402
2022/12/14 18:49,11440,-0.8658595,0.40552497,0.9703722,-0.15993021,-0.15405102,9.804135,0.006017763,0.010011516,-0.96682405,0.255176,-0.9253082,0.35562134,10.873108,-0.14154053,0.06739807,0.14576721
2022/12/14 18:49,11480,0.3175376,1.1301634,0.5184908,-0.19143876,-0.1670127,9.803359,0.007352855,0.010668914,-0.96581024,0.25892597,0.24305725,0.93322754,10.362549,0.010787964,0.052474976,0.1915741
2022/12/14 18:49,11521,0.57435346,0.9289359,-0.08788872,-0.1950004,-0.14829408,9.80359,0.007748158,0.009846185,-0.96535534,0.26063797,0.2879486,0.6776428,9.706543,0.010787964,0.046081543,0.012619019
2022/12/14 18:49,11560,-0.040986404,0.8686779,-0.1801281,-0.23576221,-0.13879903,9.802834,0.010191007,0.009944259,-0.965638,0.2595006,-0.34591675,0.80513,9.820862,0.024642944,0.16220093,-0.09710693
2022/12/14 18:49,11600,-0.25444183,0.64533085,-0.05680275,-0.29060528,-0.10389199,9.801792,0.013257282,0.008700359,-0.9661922,0.2573349,-0.58473206,0.47114563,9.743042,0.11091614,0.08656311,-0.15356445
2022/12/14 18:49,11640,-0.38693568,0.11377016,-0.20671654,-0.31585038,-0.061061244,9.801372,0.014780246,0.007116484,-0.9668334,0.25488052,-0.6799011,0.057540894,9.689774,0.07789612,0.031173706,-0.12054443
2022/12/14 18:49,11680,-0.33024725,0.3917849,-0.8763075,-0.32853347,-0.037466172,9.801074,0.015723614,0.006089218,-0.96729064,0.25310975,-0.6403961,0.4124756,9.017609,0.009719849,0.015197754,-0.08113098
2022/12/14 18:49,11721,-0.36288258,0.50978976,-0.40498638,-0.33378226,-0.05678911,9.800803,0.015734416,0.007293072,-0.9675966,0.25190488,-0.72120667,0.47413635,9.526978,-0.094680786,0.006668091,-0.07473755
2022/12/14 18:49,11760,-0.39935473,0.57648706,-0.2544651,-0.33862013,-0.08159808,9.800463,0.01560491,0.008650754,-0.96784943,0.2508966,-0.73197937,0.50465393,9.619141,-0.07443237,-0.007171631,-0.0630188
2022/12/14 18:49,11800,-0.11293447,0.56953746,-0.4194727,-0.33108088,-0.11172187,9.800424,0.014798285,0.009968165,-0.96806365,0.2500688,-0.43569946,0.4795227,9.47908,-0.11172485,-0.03060913,-0.07685852
2022/12/14 18:49,11840,-0.38005924,0.6929092,-0.089627266,-0.32362294,-0.1665594,9.799894,0.013679004,0.012747646,-0.96838415,0.24876209,-0.69247437,0.5052643,9.904663,-0.19587708,-0.041259766,-0.091781616
2022/12/14 18:49,11880,-0.3008106,0.9143232,0.5830507,-0.30572957,-0.22974622,9.7991905,0.011996548,0.015400553,-0.96872723,0.24735905,-0.56378174,0.70936584,10.541519,-0.1234436,-0.066833496,-0.10562134
2022/12/14 18:49,11920,-0.29374564,1.1594988,0.095155716,-0.2720823,-0.23830132,9.799978,0.010229476,0.014996046,-0.96905154,0.24619019,-0.50572205,0.97750854,9.848389,0.029968262,-0.11264038,-0.087524414
2022/12/14 18:49,11961,-0.3966158,1.3873488,-0.28754044,-0.23852082,-0.22747968,9.801109,0.008791228,0.014301107,-0.96934205,0.24514101,-0.6290283,1.152298,9.628723,-0.082962036,-0.05937195,-0.12161255
2022/12/14 18:49,12000,-0.5105828,1.0218396,0.86700916,-0.23413688,-0.26645947,9.800233,0.008116708,0.016368123,-0.9697179,0.24354343,-0.7128296,0.61479187,11.182556,-0.1511383,-0.03807068,-0.14291382
2022/12/14 18:49,12040,-0.33613008,0.13296866,2.119031,-0.21946903,-0.2717974,9.800426,0.007554123,0.015770342,-0.97035277,0.24105972,-0.4811859,-0.246521,11.975037,0.13328552,-0.04019165,-0.124801636
2022/12/14 18:49,12080,-0.06327054,-0.4168341,1.8980904,-0.22132638,-0.21381532,9.801821,0.008500696,0.013202708,-0.9707446,0.23960023,-0.31419373,-0.6792755,11.9505005,0.06724548,0.048217773,-0.080062866
2022/12/14 18:49,12121,-0.5947983,-1.191269,2.5223637,-0.2566555,-0.19284025,9.8013935,0.010672092,0.012243874,-0.9711061,0.23809467,-1.0133057,-1.4394379,12.416168,0.21318054,0.06951904,-0.06088257
2022/12/14 18:49,12160,-0.10532974,-1.3023646,0.6471138,-0.23728032,-0.027567595,9.8037405,0.011288358,0.002474184,-0.9710994,0.23839556,-0.008926392,-1.2018127,10.159042,0.71173096,-0.21064758,0.060546875
2022/12/14 18:49,12200,0.8452028,-0.8891562,-1.9643383,-0.12537561,0.24704313,9.802735,0.008915257,-0.012468786,-0.9710521,0.23837537,0.74583435,-0.5607605,7.741501,0.68722534,-0.27243042,-0.061950684
2022/12/14 18:49,12240,0.41816214,-0.7875879,-3.3701458,-0.06187116,0.45762703,9.795771,0.008756473,-0.022690905,-0.9713088,0.23657477,0.14131165,-0.31236267,6.528839,0.3516693,-0.015701294,-0.1737976
2022/12/14 18:49,12281,-0.39946267,-0.93931925,-2.2434654,-0.094796926,0.46951705,9.794945,0.010322253,-0.022141133,-0.97175163,0.23473811,-0.41415405,-0.51467896,8.192795,-0.19587708,0.11532593,-0.115219116
2022/12/14 18:49,12320,-0.20394652,-1.0198092,0.29775238,-0.1559089,0.38565892,9.797824,0.012316166,-0.017272584,-0.9722372,0.23303367,-0.48477173,-0.6702881,10.205124,-0.14048767,0.19415283,-0.1184082
2022/12/14 18:49,12360,0.24325003,-1.1364926,0.23798561,-0.21566902,0.2848661,9.800138,0.014068475,-0.011578078,-0.9725443,0.2320035,0.0718689,-0.8678131,10.208115,-0.38015747,0.06526184,-0.011886597
2022/12/14 18:49,12400,1.211838,-1.209896,3.0097418,-0.18707107,0.10651333,9.804288,0.010101437,-0.002665852,-0.9731831,0.22979458,0.93318176,-1.1449432,12.927338,-0.2012024,-0.10411072,-0.15142822
2022/12/14 18:49,12440,0.32334784,-0.8457457,0.059476852,-0.17117687,0.14878654,9.804028,0.010461117,-0.006142437,-0.9736261,0.2278268,0.14848328,-0.62301636,9.69397,0.33676147,0.031173706,-0.023605347
2022/12/14 18:49,12480,0.45274112,-0.08269487,-1.1801014,-0.18354955,0.23129603,9.802204,0.011985657,-0.009452955,-0.97392166,0.22637059,0.16584778,0.20837402,8.852402,0.0640564,0.07484436,-0.1418457
2022/12/14 18:49,12520,-0.14110482,-0.27463493,-0.2861204,-0.21840844,0.2147522,9.801865,0.013458978,-0.007893536,-0.97480506,0.22251219,-0.42791748,-0.12561035,9.778961,-0.09361267,0.085494995,-0.23664856
2022/12/14 18:49,12561,-0.018109292,-0.4695327,-0.05734253,-0.24673381,0.18709458,9.801761,0.014464193,-0.006483537,-0.9755558,0.21917953,-0.2142334,-0.33151245,9.87413,-0.007324219,0.040756226,-0.14077759
2022/12/14 18:49,12600,0.26088706,-0.5302597,-0.19106102,-0.261302,0.18327478,9.801455,0.015093037,-0.006138732,-0.97591937,0.21752208,-0.016708374,-0.30638123,9.733475,-0.012649536,0.034362793,-0.06515503
2022/12/14 18:49,12640,-0.25295907,-0.42670754,-0.2734356,-0.2720218,0.1614834,9.801547,0.015371005,-0.004830714,-0.97618395,0.21634519,-0.5458374,-0.16452026,9.667038,-0.069107056,0.031173706,-0.033187866
2022/12/14 18:49,12680,-0.18015781,0.13214327,-0.56536007,-0.29760736,0.1313215,9.801254,0.016265847,-0.003251284,-0.97613794,0.21651694,-0.46502686,0.3101349,9.313293,-0.07550049,0.059936523,0.031784058
2022/12/14 18:49,12721,-0.14789495,0.6146565,-0.557847,-0.30453908,0.0864279,9.801539,0.016117344,-9.00E-04,-0.97560936,0.21891952,-0.42132568,0.7841797,9.430008,-0.17990112,-0.048721313,0.17134094
2022/12/14 18:49,12760,-0.014765471,0.9005811,-0.4019022,-0.26618665,0.02278117,9.80301,0.013104111,0.002285349,-0.9744182,0.22434843,-0.3117981,0.93740845,9.548523,-0.21078491,-0.121154785,0.20649719
2022/12/14 18:49,12800,-0.21779497,1.0294667,-0.23949718,-0.23038265,-0.058123115,9.803771,0.010517184,0.006081337,-0.9733797,0.22887644,-0.4416809,1.0158234,9.639496,-0.2565918,-0.055114746,0.17240906
2022/12/14 18:49,12840,0.34786564,1.3223194,-0.102555275,-0.2132988,-0.13371997,9.803418,0.008793199,0.009455931,-0.9723148,0.23331802,0.16824341,1.2534485,9.803497,-0.17669678,-0.04019165,0.18624878
2022/12/14 18:49,12880,0.22791988,1.362171,-0.05370903,-0.1826178,-0.15508384,9.803723,0.006912704,0.009701252,-0.9713589,0.23731828,-0.004745483,0.9972687,9.610168,0.010787964,-0.11582947,0.18519592
2022/12/14 18:49,12921,0.20349602,1.0094724,-1.1263943,-0.15563112,-0.13638107,9.804467,0.005967623,0.008728211,-0.9704359,0.24112725,0.11856079,0.86499023,8.683014,-0.05206299,-0.01676941,0.17773438
2022/12/14 18:49,12960,0.6723222,1.1273322,-0.43946934,-0.1586391,-0.1972331,9.803384,0.005213908,0.012361422,-0.9697606,0.24368903,0.41604614,0.9595642,9.786148,-0.30133057,0.003479004,0.09251404
2022/12/14 18:49,13000,-0.07762517,1.0046456,0.47685242,-0.18793191,-0.2940376,9.80044,0.005621971,0.016883666,-0.9694308,0.24471869,-0.27827454,0.7267151,10.390686,-0.20439148,0.17178345,0.072265625
2022/12/14 18:49,13040,-0.10708308,0.8468355,1.9350109,-0.23579961,-0.32138765,9.798547,0.007622632,0.01884444,-0.96905756,0.24599636,-0.25553894,0.5447693,11.925964,0.0917511,0.02798462,0.1638794
2022/12/14 18:49,13080,0.44522053,1.4394113,0.13964939,-0.20640278,-0.1904071,9.8026285,0.007788359,0.012015672,-0.968667,0.24795006,0.14729309,1.2504578,9.895081,0.34848022,-0.13075256,0.13832092
2022/12/14 18:49,13120,0.13242133,1.2956585,-0.09433079,-0.19461186,-0.14990419,9.803574,0.007697959,0.010534789,-0.9680368,0.25046858,-0.03466797,1.0271912,10.124924,-0.27363586,0.07698059,0.13511658
2022/12/14 18:49,13161,0.21323957,0.37508938,3.7063055,-0.15969437,-0.24897256,9.802188,0.004098242,0.014216129,-0.9680104,0.25047335,-0.1346283,-0.5422058,13.986771,-0.038208008,-0.25750732,-0.036392212
2022/12/14 18:49,13200,-0.01088047,-1.1176922,2.204589,-0.15069123,-0.18260744,9.803791,0.005684173,0.010381556,-0.9676587,0.25198522,-0.093322754,-1.2562714,11.915192,0.30267334,0.17391968,0.19052124
2022/12/14 18:49,13240,0.84318614,-0.5597506,1.0273981,-0.20060934,-0.04386391,9.804501,0.009750863,0.003523995,-0.96683055,0.2552081,0.67222595,-0.5170593,10.863541,0.5285034,0.066329956,0.16175842
2022/12/14 18:49,13280,0.045583308,-0.72632974,-0.78493595,-0.19174284,0.21936442,9.802321,0.01270603,-0.010136473,-0.9660312,0.25791377,-0.22979736,-0.451828,8.910461,0.78204346,-0.043395996,0.14257812
2022/12/14 18:49,13320,-0.2623121,-1.040734,-1.9275761,-0.18323597,0.4873787,9.792818,0.015489479,-0.021571903,-0.96524346,0.2599995,-0.508728,-0.72236633,7.9976807,0.379364,0.031173706,-0.021469116
2022/12/14 18:49,13360,-0.67830735,-2.1484375,-0.7840252,-0.22351107,0.4999487,9.791347,0.0177865,-0.021042442,-0.96560854,0.25853637,-0.9731903,-1.7782135,9.423416,-0.1862793,0.10574341,-0.20256042
2022/12/14 18:49,13400,-1.0949503,-2.2958512,0.64265156,-0.2633431,0.39013305,9.795347,0.018070035,-0.015803346,-0.96650624,0.255518,-1.3634491,-1.7716217,10.568451,-0.0488739,0.03010559,-0.06515503
2022/12/14 18:49,13441,-0.2363928,-0.70520234,-1.1316185,-0.27990726,0.40590516,9.794248,0.019119091,-0.016374154,-0.9661601,0.2567119,-0.33753967,-0.16810608,8.741074,0.027832031,0.010940552,0.15855408
2022/12/14 18:49,13480,0.849308,-0.11985108,-0.8317127,-0.26035094,0.38423595,9.79566,0.017721035,-0.015200926,-0.9656817,0.2586771,0.59680176,0.255661,9.1026,-0.12556458,-0.01889038,0.057357788
2022/12/14 18:49,13520,0.14276892,-0.35639548,-0.5619335,-0.24909744,0.2958156,9.799022,0.015827658,-0.010477501,-0.966132,0.25734934,-0.17892456,-0.11424255,9.552109,-0.33969116,-0.04019165,-0.12054443
2022/12/14 18:49,13560,-0.24227232,-0.5416832,0.9718504,-0.23202203,0.16029476,9.802595,0.013336179,-0.004365384,-0.9670858,0.25406343,-0.53266907,-0.37161255,10.977264,-0.2246399,-0.029541016,-0.17807007
2022/12/14 18:49,13600,-0.6835625,-0.45567417,0.09637928,-0.24172786,0.1323578,9.802777,0.013771029,-0.003594767,-0.9681295,0.25004533,-1.0168915,-0.2578888,9.791534,0.081100464,0.024780273,-0.1098938
2022/12/14 18:49,13641,-0.5622885,-0.16352247,-0.86462307,-0.25490165,0.15626669,9.802092,0.014629496,-0.004528271,-0.96868324,0.24782701,-0.70744324,0.062332153,9.02359,0.0256958,0.005615234,-0.01828003
2022/12/14 18:49,13680,-0.109642565,0.06750424,-1.1355019,-0.25738505,0.13075265,9.8024,0.014281261,-0.002820221,-0.9691991,0.24584785,-0.44348145,0.18563843,8.899689,-0.16711426,0.005615234,-0.07260132
2022/12/14 18:49,13720,-0.361233,0.1844433,-0.52295303,-0.27362844,0.061170414,9.802641,0.014304766,7.59E-04,-0.96984845,0.24328743,-0.576355,0.24130249,9.33902,-0.15753174,0.03224182,-0.027862549
2022/12/14 18:49,13760,0.33638364,0.4794127,-0.52564716,-0.26228794,-0.006104201,9.80314,0.012617039,0.003896906,-0.9704362,0.2409962,0.12335205,0.47712708,9.514404,-0.18522644,-0.066833496,-0.050231934
2022/12/14 18:49,13800,-0.03630492,0.2685752,-0.17066956,-0.23949419,-0.06779118,9.803491,0.010912321,0.006562336,-0.9715296,0.23657581,-0.37704468,0.16407776,9.720306,-0.14154053,-0.026351929,-0.1695404
2022/12/14 18:49,13841,-0.59823483,0.36531836,-0.29896927,-0.22753906,-0.112275295,9.803368,0.00987878,0.00847551,-0.97262967,0.23199584,-0.88461304,0.35142517,9.61496,-0.10105896,-0.029541016,-0.10882568
2022/12/14 18:49,13880,-0.5263141,0.84083724,-0.25452995,-0.22207202,-0.1424708,9.803101,0.009302431,0.009831535,-0.9732715,0.22925843,-0.70025635,0.70098877,9.721497,-0.09147644,-0.01676941,-0.038513184
2022/12/14 18:49,13920,-0.05021046,0.90692574,0.30007935,-0.21580596,-0.16047701,9.802962,0.00875582,0.010432435,-0.97395736,0.22632179,-0.23458862,0.7943573,10.251221,-0.025436401,-0.04446411,-0.05343628
2022/12/14 18:49,13960,-0.051691443,0.845199,0.081851006,-0.19267978,-0.14052954,9.80375,0.007835374,0.008929944,-0.97485924,0.22250465,-0.27348328,0.69081116,9.9262085,0.0640564,-0.08280945,-0.080062866
2022/12/14 18:49,14000,0.06562354,0.93947047,0.14461994,-0.1639574,-0.10618201,9.804706,0.006890785,0.006826394,-0.9757073,0.21886346,-0.034072876,0.8955078,10.0525055,0.08215332,-0.0519104,-0.04597473
2022/12/14 18:49,14040,0.052181855,1.1636913,0.28106117,-0.14147902,-0.06422697,9.805419,0.006339484,0.004750976,-0.97652036,0.21527942,-0.16036987,1.085846,10.235657,0.0448761,-0.05937195,-0.08538818
2022/12/14 18:49,14081,-0.15067942,1.1036927,1.1594801,-0.13787776,-0.071133256,9.805423,0.006101912,0.005034122,-0.9772635,0.21188062,-0.21243286,0.9852905,11.3064575,-0.12982178,-0.027420044,-0.04171753
2022/12/14 18:49,14120,-0.20134522,0.31987756,3.1303368,-0.113280386,-0.12699343,9.805174,0.004190701,0.007782062,-0.97820985,0.20743047,-0.3812256,-0.010101318,13.224213,-0.1308899,-0.03593445,-0.16635132
2022/12/14 18:49,14160,-0.98540634,-1.3518903,3.6106195,-0.12057617,-0.14947256,9.8047695,0.004578496,0.008487183,-0.97944427,0.20148438,-1.1934662,-1.6022339,13.636017,0.11305237,-7.78E-04,-0.21427917
2022/12/14 18:49,14200,-0.9196647,-1.7778457,2.6328764,-0.07466996,0.019566484,9.806347,0.003560364,-0.00259743,-0.98025465,0.19769007,-0.90556335,-1.657898,12.186935,0.93544006,-0.3544464,-0.036392212
2022/12/14 18:49,14240,0.17315367,-1.439265,-1.7444324,0.05932863,0.47164363,9.795122,0.001636782,-0.027419737,-0.9797419,0.19837175,0.48846436,-0.78341675,7.502075,1.3231964,-0.31396484,0.13832092
2022/12/14 18:49,14281,1.1713669,-0.9342876,-4.742709,0.15794805,0.8254218,9.770575,3.43E-04,-0.043573327,-0.97892654,0.19950962,1.3342133,-0.21479797,5.516678,0.31758118,-0.1030426,-0.005493164
2022/12/14 18:49,14320,0.17348495,-1.8668199,-1.347167,0.14173158,0.7609992,9.7760515,7.73E-04,-0.03820147,-0.97965956,0.19699538,0.11077881,-1.1754761,9.077454,-0.4568634,0.17817688,-0.15249634
2022/12/14 18:49,14360,-0.0752631,-1.6744109,0.65495205,0.065375134,0.5899283,9.788672,0.002610444,-0.03016323,-0.9802678,0.19534177,4.58E-05,-1.0401917,10.528946,-0.1308899,0.12597656,0.008361816
2022/12/14 18:49,14401,0.015971562,-1.1030892,-0.943449,0.027665032,0.5791308,9.789495,0.004383653,-0.029247371,-0.98032534,0.19516046,-0.02748108,-0.46139526,8.841034,0.0256958,0.08123779,0.019012451
2022/12/14 18:49,14440,-0.12944113,-0.9147489,-1.4300814,-0.012200285,0.53675723,9.791942,0.005973032,-0.026724989,-0.980259,0.19581212,-0.08255005,-0.333313,8.574081,-0.20013428,0.13450623,0.08718872
2022/12/14 18:49,14481,0.11054072,-0.44245434,-0.75667286,-0.06689781,0.40599072,9.798015,0.007536106,-0.018442884,-0.9802276,0.19686769,0.092819214,-0.05319214,9.249237,-0.44514465,0.14834595,0.053100586
2022/12/14 18:49,14520,0.2793677,-0.48094785,0.7277622,-0.099162534,0.20799185,9.803943,0.00682055,-0.008220982,-0.9804026,0.19671474,0.17182922,-0.35964966,10.806671,-0.4792328,0.015197754,0.01687622
2022/12/14 18:49,14560,0.087852664,-0.5409353,0.7822933,-0.10233317,0.06728404,9.805885,0.005859087,-0.001811121,-0.9806283,0.19578178,0.03656006,-0.43925476,10.531342,-0.19906616,0.06526184,0.09037781
2022/12/14 18:49,14601,0.47300437,-0.17455465,0.12661362,-0.13124172,0.006951719,9.805769,0.006503929,0.001208722,-0.9807427,0.19519211,0.35559082,-0.15254211,10.150665,-0.11172485,-0.010375977,0.04777527
2022/12/14 18:49,14640,0.6535727,0.019447401,-0.41428947,-0.10860135,-0.014976633,9.806038,0.005162407,0.001875283,-0.98114914,0.19317408,0.52438354,0.03479004,9.466522,-0.030761719,-0.03060913,-0.011886597
2022/12/14 18:49,14680,0.025253959,0.3125281,-0.9060669,-0.09849334,-0.043750383,9.806057,0.004370989,0.003445291,-0.9816324,0.19070098,-0.16514587,0.25506592,9.030777,-0.13835144,-0.034866333,-0.011886597
2022/12/14 18:49,14720,0.0860081,0.43592644,-0.48323822,-0.08832079,-0.09972166,9.805745,0.003460888,0.005844089,-0.98194826,0.1890277,0.06588745,0.39154053,9.478485,-0.12663269,0.008804321,0.006225586
2022/12/14 18:49,14761,-0.35434034,0.64250624,-0.5860996,-0.09731536,-0.14815901,9.805048,0.003459657,0.008349788,-0.9822736,0.1872351,-0.46322632,0.528595,9.33902,-0.1820221,0.031173706,0.057357788
2022/12/14 18:49,14800,-0.003252447,0.7579547,0.413167,-0.1095122,-0.2413714,9.803067,0.003069546,0.013747095,-0.98220146,0.18730149,-0.091537476,0.48550415,10.404449,-0.2757721,-7.78E-04,0.10423279
2022/12/14 18:49,14840,0.03270472,0.72437286,0.39480782,-0.11276578,-0.31336918,9.800994,0.002657262,0.017050484,-0.98215413,0.1872844,-0.12924194,0.44898987,10.240448,-0.13302612,0.01626587,0.12979126
2022/12/14 18:49,14881,0.2609126,1.0264908,-0.25461864,-0.1291931,-0.34636012,9.79968,0.00331774,0.018869331,-0.9820384,0.18770613,0.15686035,0.69799805,9.626923,-0.12130737,0.08016968,0.13406372
2022/12/14 18:49,14920,0.36703438,1.1797361,0.08507538,-0.16401297,-0.4006062,9.7970915,0.004532693,0.022038357,-0.9820558,0.18724367,0.17842102,0.8087158,10.074051,-0.1820221,0.09402466,0.07759094
2022/12/14 18:49,14960,-0.18800849,1.1651388,0.3101778,-0.19810678,-0.425102,9.795428,0.006274941,0.02309528,-0.9822367,0.18611374,-0.50572205,0.8332672,10.066864,0.022506714,0.13983154,0.10635376
2022/12/14 18:49,15000,0.020417243,1.460101,-0.36756325,-0.2387866,-0.37531054,9.796556,0.008531021,0.020681867,-0.9818861,0.18814671,0.008422852,1.1534882,9.527573,0.13009644,0.03543091,0.28318787
2022/12/14 18:49,15041,0.72454274,1.5827568,0.9659891,-0.22039616,-0.31996712,9.79895,0.007591202,0.017747482,-0.9817265,0.18931581,0.30470276,1.2714081,11.359726,0.097076416,-0.16163635,0.048828125
2022/12/14 18:49,15080,-0.7842442,0.46908218,2.338193,-0.20550777,-0.22162984,9.8019905,0.008674059,0.012219522,-0.9821048,0.18773828,-0.9893646,0.09825134,12.219849,0.36445618,0.11746216,0.07546997
2022/12/14 18:49,15120,0.40060556,-0.4661994,0.710969,-0.2666059,-0.08842465,9.802627,0.012695045,0.006981974,-0.9820709,0.18795422,0.2658081,-0.59906006,10.721085,0.0448761,0.09509277,0.064819336
2022/12/14 18:49,15160,1.0211326,-1.2566867,3.0205498,-0.23124371,-0.13790625,9.802953,0.009787319,0.009155728,-0.98291075,0.18359412,0.703949,-1.4424286,13.127853,-0.04673767,-0.17655945,-0.24624634
2022/12/14 18:49,15200,-0.016359925,-1.6685988,1.7453127,-0.20283662,-0.06816727,9.804316,0.009772222,0.003991078,-0.9838616,0.17861934,-0.25254822,-1.7129669,11.505173,0.5476837,-7.78E-04,-0.0949707
2022/12/14 18:49,15240,0.21652651,-0.8080543,-1.6478624,-0.17002186,0.20728698,9.802985,0.010281289,-0.010698567,-0.9838721,0.17825694,0.14131165,-0.45961,7.7881775,0.7596741,-0.17549133,0.0541687
2022/12/14 18:49,15281,-0.15902488,-0.952248,-3.1942863,-0.09579687,0.36090007,9.79954,0.007749789,-0.01696954,-0.9839932,0.17722714,-0.4195404,-0.7475128,7.050171,-0.07763672,-0.12861633,-0.1418457
2022/12/14 18:49,15320,-1.378388,-1.898308,0.54910755,-0.07695844,0.20434512,9.804219,0.005504145,-0.008388048,-0.9848624,0.17304736,-1.6052704,-1.753067,11.007187,-0.42703247,-0.022094727,-0.23132324
2022/12/14 18:49,15360,-1.4733534,-1.8435483,1.6232119,-0.08998751,0.10633462,9.80566,0.005524064,-0.004806876,-0.9852461,0.17098674,-1.3454895,-1.4424286,11.3220215,0.1663208,-0.015701294,0.07014465
2022/12/14 18:49,15400,0.081824794,-0.37472066,-1.4142914,-0.094537154,0.21435365,9.803851,0.006641521,-0.009929068,-0.98480004,0.17328078,0.042541504,-0.09687805,8.419647,0.23556519,0.01626587,0.17880249
2022/12/14 18:49,15440,-0.103392586,-0.81797117,-1.1887732,-0.103282355,0.22592892,9.803503,0.007201615,-0.010420356,-0.98448086,0.1750341,-0.28785706,-0.6086426,8.915253,-0.08828735,0.017318726,0.07333374
2022/12/14 18:49,15480,-0.08061706,-1.1329867,-0.3702917,-0.11193483,0.18082723,9.804343,0.007147993,-0.007919289,-0.98436344,0.1758262,-0.1855011,-0.91989136,9.706543,-0.045669556,-0.019958496,0.046707153
2022/12/14 18:49,15520,-0.08528873,-0.7830919,-0.2676258,-0.09053065,0.18701307,9.804449,0.006142028,-0.008792527,-0.98437405,0.1757632,-0.15498352,-0.5637512,9.689774,0.09919739,-0.05404663,0.004089356
2022/12/14 18:49,15560,0.13612887,-0.36613417,-1.0202236,-0.085241176,0.20068505,9.804225,0.006008158,-0.009116858,-0.9845566,0.17472568,0.012023926,-0.11244202,9.091827,-0.06803894,-0.008239746,-0.07366943
2022/12/14 18:49,15600,-0.43783662,-0.28095782,-0.35724163,-0.079420626,0.15304197,9.805135,0.00517987,-0.006627352,-0.98490703,0.17287964,-0.46502686,-0.07234192,9.612564,-0.14367676,-0.045532227,-0.023605347
2022/12/14 18:49,15640,0.20137277,0.03350284,0.074193954,-0.06550084,0.08992249,9.80602,0.004036016,-0.003597419,-0.9851689,0.17150249,0.24006653,0.18502808,10.000427,-0.14367676,0.013061523,-0.044906616
2022/12/14 18:49,15680,0.08977625,0.26196855,-0.106059074,-0.063169345,0.055819236,9.806288,0.003622151,-0.002201172,-0.98558265,0.16914159,0.03656006,0.34843445,9.719101,-0.031829834,-0.005050659,-0.054489136
2022/12/14 18:49,15721,0.28933144,0.38634276,-0.47786522,-0.054851793,0.029367443,9.806454,0.003007252,-0.001009869,-0.9859858,0.16679904,0.11856079,0.3532257,9.533554,-0.12663269,-0.039138794,-0.11201477
2022/12/14 18:49,15760,-0.5742929,0.1876638,0.28837013,-0.03485935,-0.016784148,9.806574,0.001613817,0.001134386,-0.9865867,0.16322616,-0.62423706,0.17785645,10.19136,-0.06378174,-0.074279785,-0.115219116
2022/12/14 18:49,15800,-0.38218176,0.69010663,-0.44930458,-0.012649807,-0.009658086,9.806637,4.59E-04,4.41E-04,-0.9868608,0.16157159,-0.3513031,0.69140625,9.37793,0.036346436,-0.058303833,0.004089356
2022/12/14 18:49,15840,0.06302622,0.85945815,-1.112257,0.009345222,-0.008740882,9.806642,-7.69E-04,5.88E-04,-0.986929,0.16115278,0.09222412,0.8153076,8.824875,-0.12023926,-0.07322693,0.011550903
2022/12/14 18:49,15881,0.2882675,0.7025566,-0.24047947,0.03728652,-0.07556252,9.806288,-0.002686635,0.003985312,-0.98702073,0.16052094,0.35020447,0.64711,9.75322,-0.22570801,-0.04019165,-0.036392212
2022/12/14 18:49,15920,0.05742191,0.90351087,-0.30753613,0.031175014,-0.15153429,9.805429,-0.002798093,0.007375202,-0.9872415,0.15903437,0.081451416,0.8416443,9.603592,-0.21078491,0.101486206,-0.075805664
2022/12/14 18:49,15960,-0.2680765,1.2104797,0.3752594,-0.002994946,-0.223724,9.804097,-0.001615014,0.011627388,-0.98754656,0.1568883,-0.318985,0.98828125,10.560074,-0.17350769,0.03224182,-0.10882568
2022/12/14 18:49,16000,-0.38128766,1.2108579,1.1787691,0.001826249,-0.21173865,9.804363,-0.001743825,0.010021484,-0.98783743,0.15515703,-0.29623413,1.0062408,10.922791,0.21212769,-0.037002563,-0.06941223
2022/12/14 18:49,16041,0.2903719,1.1908305,0.033634186,0.022756657,-0.10965674,9.80601,-0.002143168,0.004960218,-0.9879711,0.15454386,0.47470093,0.97691345,10.094391,0.106658936,-0.06790161,-0.05130005
2022/12/14 18:49,16080,0.97033715,0.6392357,2.2409668,0.061989594,-0.10298426,9.805914,-0.004170212,0.0049098,-0.9883259,0.15221834,0.99064636,0.2730255,12.346146,-0.11491394,-0.058303833,-0.25369263
2022/12/14 18:49,16120,-0.99507475,-1.3442239,3.1613722,0.0556767,-0.18231903,9.804796,-0.004163255,0.008783184,-0.98927796,0.14572097,-1.0988922,-1.6938171,13.249359,-0.20333862,0.062072754,-0.35916138
2022/12/14 18:49,16160,-1.1888379,-2.0644417,3.189539,0.042415835,-0.20150548,9.804488,-0.003656402,0.009049025,-0.98987716,0.14159095,-1.0079193,-2.219345,13.060806,0.29841614,-0.074279785,-0.07260132
2022/12/14 18:49,16200,-0.08582777,-1.4670644,-0.041576385,0.13065909,0.053709727,9.805633,-0.006700418,-0.006131635,-0.989665,0.143111,0.17541504,-1.2209625,9.125336,0.99082947,-0.3448639,0.07972717
2022/12/14 18:49,16241,0.26662123,-0.6409861,-3.8232336,0.23534904,0.38713893,9.796179,-0.009122506,-0.022680221,-0.98919296,0.14456718,0.6243286,-0.17050171,5.8824005,0.5956116,-0.11903381,0.034988403
2022/12/14 18:49,16280,0.10699575,-0.65376127,-2.8981457,0.23015994,0.44925666,9.793651,-0.007987913,-0.023564562,-0.98923767,0.1441863,0.21731567,-0.35186768,7.608017,-0.27044678,0.16859436,-0.1184082
2022/12/14 18:49,16320,-0.7076838,-1.5144708,0.308321,0.14250429,0.27942312,9.801632,-0.004703401,-0.014045071,-0.98967326,0.14257449,-0.6769104,-1.3388824,10.614532,-0.38442993,0.22930908,-0.042770386
2022/12/14 18:49,16360,-0.23847368,-1.506395,0.7804661,0.0701826,0.19928978,9.804375,-0.001762325,-0.010661717,-0.989441,0.14453308,-0.001754761,-1.1329803,10.4673,0.10133362,0.11532593,0.19477844
2022/12/14 18:49,16400,0.7209544,-0.776759,-0.5394983,0.044577923,0.24765597,9.803421,-3.04E-04,-0.013162719,-0.98894024,0.14772885,0.75541687,-0.3662262,9.175629,0.15032959,0.03543091,0.16920471
2022/12/14 18:49,16440,0.3758599,-0.28239858,-1.2821655,0.020458557,0.2415651,9.803653,8.12E-04,-0.012334735,-0.9886626,0.14964426,0.41903687,-0.014877319,8.782379,-0.22143555,0.12704468,0.10316467
2022/12/14 18:49,16481,0.14410293,-0.60871047,1.2945662,-0.009544926,0.12764297,9.805815,0.001518418,-0.00598689,-0.9886534,0.15008737,0.11975098,-0.47517395,11.3741,-0.1777649,0.04928589,0.022201538
2022/12/14 18:49,16520,0.03868749,-0.22419909,-0.2459364,-0.028348893,0.14943177,9.80547,0.002572028,-0.007316083,-0.9886547,0.15000603,0.020401001,-0.054382324,9.383911,0.18336487,0.048217773,0.055221558
2022/12/14 18:49,16560,0.34349754,-0.30679816,-1.2117767,-0.03916552,0.16171509,9.805238,0.00320142,-0.007406525,-0.98862237,0.15020227,0.28974915,-0.17349243,8.797943,-0.13728333,0.026916504,0.03605652
2022/12/14 18:49,16600,-0.10368847,-0.45475802,0.29239368,-0.053585697,0.06820521,9.806267,0.003309516,-0.002496542,-0.98886096,0.14878431,-0.1675415,-0.34707642,10.2703705,-0.20652771,0.06100464,0.017944336
2022/12/14 18:49,16640,-0.3545535,0.05207616,-0.34773445,-0.09635692,0.012189829,9.806169,0.005234675,4.51E-04,-0.9888171,0.14904058,-0.3806305,0.115600586,9.452744,-0.11705017,0.1281128,0.13618469
2022/12/14 18:49,16681,-0.52118415,0.42509466,-0.14588928,-0.13668086,-0.051470093,9.805563,0.006692255,0.004180519,-0.98858625,0.15044908,-0.5386505,0.5375824,9.93338,-0.22038269,0.09616089,0.15855408
2022/12/14 18:49,16720,-0.83382285,0.4356706,0.6047449,-0.19169933,-0.11303018,9.804124,0.009160682,0.007343952,-0.9882878,0.15214917,-1.0797424,0.38734436,10.490631,-0.0488739,0.13557434,0.2384491
2022/12/14 18:49,16760,-0.48090702,0.7954,-0.30610657,-0.24670082,-0.1008922,9.803027,0.011954757,0.006948305,-0.9876645,0.15597309,-0.5823364,0.6926117,9.576645,0.028900146,0.11532593,0.3684082
2022/12/14 18:49,16800,-0.015264034,0.90510994,-0.43265724,-0.29110795,-0.08691927,9.801944,0.014166088,0.006764408,-0.9868397,0.16093786,-0.28126526,0.7907715,9.500641,-0.02116394,0.087631226,0.4078369
2022/12/14 18:49,16840,0.19138193,0.8463729,-0.12149429,-0.32267419,-0.06883144,9.801099,0.015837388,0.005985861,-0.9857711,0.16723831,-0.13342285,0.78897095,9.753815,0.06724548,0.066329956,0.44404602
2022/12/14 18:49,16880,-0.097011805,0.7778599,-0.83467674,-0.3483945,-0.02450754,9.800429,0.017490087,0.004125176,-0.9847707,0.17292695,-0.5063324,0.8266754,9.04454,0.050201416,0.066329956,0.4898529
2022/12/14 18:49,16921,-0.41856456,0.92557675,-0.6751671,-0.37727076,-0.015527379,9.799378,0.018923389,0.004396044,-0.98348194,0.17996052,-0.8002167,0.87815857,9.430008,-0.09361267,0.057800293,0.57933044
2022/12/14 18:49,16960,-0.7010883,0.8886005,0.62114525,-0.39679742,-0.032534882,9.798566,0.019640615,0.005395818,-0.9817466,0.1890997,-1.0061188,0.8631897,10.699524,-0.029693604,0.009872437,0.7220764
2022/12/14 18:49,17000,-0.69938767,1.094005,0.6792555,-0.4052604,0.018571354,9.798256,0.020534372,0.002663495,-0.9793569,0.20107557,-1.1790924,1.1181793,10.552292,0.16418457,-0.021026611,0.8871918
2022/12/14 18:49,17040,-0.161187,1.210762,0.8630686,-0.38173136,0.11725609,9.798516,0.020198615,-0.00226598,-0.97601795,0.21673909,-0.2824707,1.2109528,11.028137,0.17803955,-0.08174133,1.0512543
2022/12/14 18:49,17080,-1.1845258,0.2079847,2.8389788,-0.302563,0.23633298,9.799132,0.017822849,-0.008103143,-0.97200143,0.23415792,-1.5304413,0.37477112,12.7920685,0.29307556,-0.30438232,1.062973
2022/12/14 18:49,17120,-0.73722416,-1.477061,1.4276705,-0.22936773,0.362734,9.797255,0.016012004,-0.0149213,-0.9669785,0.2539164,-0.81996155,-1.1455383,11.342972,0.25154114,-0.05404663,1.2014465
2022/12/14 18:49,17160,-0.494866,-1.6971223,1.4807949,-0.1784667,0.39877558,9.796913,0.014105202,-0.01729598,-0.96119624,0.27496132,-0.71102905,-1.3239136,11.427963,0.08854675,-0.090270996,1.1109009
2022/12/14 18:49,17201,-0.5829726,-1.1184914,-0.05513096,-0.11890231,0.46827596,9.794742,0.012521699,-0.021846464,-0.95536786,0.29434374,-0.6864929,-0.46559143,9.650269,0.28456116,-0.16056824,1.3601685
2022/12/14 18:49,17240,-1.2337365,-0.75186205,-1.0929937,-0.044212,0.59053373,9.788754,0.011707888,-0.02872759,-0.9481258,0.31637815,-1.3353119,-0.12081909,8.766815,0.3516693,-0.04446411,1.5540466
2022/12/14 18:49,17280,-1.7137295,-1.3990368,-2.0087576,-0.029915916,0.69067377,9.782252,0.013535835,-0.032882076,-0.93967086,0.34022668,-1.6555481,-0.8265228,7.9940796,0.15460205,0.06526184,1.5135803
2022/12/14 18:49,17320,-1.6518652,-1.9726259,-1.5193176,-0.067047566,0.6832945,9.782587,0.016146077,-0.0305104,-0.93104136,0.36327735,-1.7291718,-1.3263092,8.608795,-0.17990112,0.26020813,1.351654
2022/12/14 18:49,17361,-1.5036913,-2.0056598,-0.20851707,-0.16545218,0.5609092,9.789198,0.019085672,-0.022096176,-0.9227395,0.3843167,-1.6621246,-1.4382324,9.860962,-0.3279724,0.31559753,1.3420715
2022/12/14 18:49,17400,-0.9661519,-1.5955561,0.26302624,-0.2781997,0.4391781,9.792861,0.02205911,-0.014713174,-0.913616,0.4057126,-1.1228333,-0.93904114,10.108765,-0.1777649,0.26872253,1.4677734
2022/12/14 18:49,17440,-0.45631495,-0.78091407,-0.5992279,-0.34102935,0.4034679,9.792411,0.024814922,-0.010735,-0.90306133,0.42865977,-0.7595062,-0.2866211,9.268402,-0.13728333,0.22398376,1.5604401
2022/12/14 18:49,17480,-1.0086882,-0.6634547,-0.37031174,-0.4161088,0.332123,9.792188,0.026752964,-0.00472923,-0.89058024,0.4540141,-1.6058655,-0.41711426,9.579636,-0.27470398,0.2111969,1.4720306
2022/12/14 18:49,17521,-1.6416416,-1.0256374,-0.06995392,-0.4891298,0.24562669,9.791364,0.027909135,6.80E-04,-0.88210505,0.47022468,-2.141571,-0.82951355,9.729874,-0.2576599,0.17391968,1.6105194
2022/12/14 18:49,17560,-1.0691013,-1.2107143,0.13033581,-0.5393607,0.17364465,9.790266,0.028395416,0.006323667,-0.8697123,0.49270102,-1.612442,-1.0222473,10.050705,-0.21717834,0.12918091,1.7479248
2022/12/14 18:49,17600,-0.55286986,-0.898181,-0.6980629,-0.59767956,0.11803774,9.787708,0.029422529,0.011159478,-0.8583167,0.51215446,-1.1360016,-0.7738495,9.151672,-0.29388428,0.2069397,1.7713623
2022/12/14 18:49,17640,-0.45673805,-0.6770235,-0.3204651,-0.67966884,0.001905663,9.783069,0.029408988,0.019442843,-0.84671456,0.53087807,-1.1078644,-0.7235718,9.667038,-0.48776245,0.21972656,1.763916
2022/12/14 18:49,17680,0.14690256,-0.6051757,0.50355244,-0.7507675,-0.13320856,9.776962,0.028175151,0.027383402,-0.83514196,0.54862934,-0.52667236,-0.7086029,10.382294,-0.3780365,0.09828186,1.7351532
2022/12/14 18:49,17720,0.5359942,-0.3281722,-0.101760864,-0.78995854,-0.21285166,9.772464,0.027038893,0.03231336,-0.8243661,0.56448674,-0.21183777,-0.53022766,9.7921295,-0.33969116,0.08230591,1.6286163
2022/12/14 18:49,17760,0.85444146,0.043891728,0.33461952,-0.8228065,-0.30278003,9.767379,0.025055759,0.037410203,-0.814721,0.5781024,0.006027222,-0.23036194,10.254211,-0.35246277,0.005615234,1.4986572
2022/12/14 18:49,17801,1.1479039,0.24851379,0.6776514,-0.81843996,-0.37314028,9.765312,0.022491662,0.04002258,-0.8065612,0.58936524,0.3178711,-0.11604309,10.5672455,-0.19267273,-0.0753479,1.3399353
2022/12/14 18:49,17840,1.426622,0.38919592,0.52011776,-0.7726354,-0.35790706,9.769612,0.020686055,0.03821639,-0.8008209,0.59732527,0.7033386,0.006072998,10.315262,0.04701233,-0.16696167,1.1002502
2022/12/14 18:49,17880,1.5084817,0.53040266,-0.09982395,-0.6960363,-0.27874464,9.7779455,0.019415904,0.032066926,-0.7925281,0.60868216,0.80329895,0.2628479,9.771179,0.1748352,-0.22236633,0.842453
2022/12/14 18:49,17920,1.29298,0.7780269,-0.73813343,-0.6086656,-0.18299808,9.786032,0.018668886,0.025747878,-0.7887897,0.6138398,0.62971497,0.63334656,9.20256,0.14607239,-0.18721008,0.5601654
2022/12/14 18:49,17960,0.6065514,0.71594244,-0.19933605,-0.5281416,-0.13598464,9.791474,0.016648905,0.021593234,-0.78839666,0.61456263,0.066482544,0.5561371,9.836426,0.02357483,-0.20637512,0.29917908
2022/12/14 18:49,18000,0.6513552,0.8351421,0.24629211,-0.4538079,-0.11358483,9.7954855,0.014542923,0.018405143,-0.79070115,0.61175275,0.2945404,0.8081207,10.238647,0.032089233,-0.13713074,0.048828125
2022/12/14 18:49,18040,0.31011614,1.1146646,0.42615795,-0.42432216,-0.09344411,9.797021,0.014472005,0.016887221,-0.7956056,0.6054066,-0.24894714,1.105011,10.3966675,0.011856079,0.054611206,-0.13012695
2022/12/14 18:49,18081,0.061926633,1.7148294,1.3335085,-0.44571617,-0.067208834,9.796286,0.016438738,0.016144574,-0.80019313,0.59929967,-0.48358154,1.6844025,11.326218,0.108795166,0.040756226,-0.07048035
2022/12/14 18:49,18120,-1.0572473,0.82359934,1.6543131,-0.46434817,0.002663521,9.7956505,0.019158497,0.013921151,-0.80537206,0.59229636,-1.9637909,0.5693054,11.877472,0.13009644,0.08230591,-0.20683289
2022/12/14 18:49,18160,-1.4969966,-0.79228044,2.6491117,-0.52615064,0.04515842,9.792421,0.02309931,0.013852626,-0.81019133,0.5855463,-1.9212952,-0.8343048,12.600525,0.16204834,0.11746216,-0.025726318
2022/12/14 18:49,18200,-0.8198912,-1.6869509,1.163372,-0.5398445,0.14727978,9.790672,0.026795056,0.009832067,-0.8146956,0.57918596,-1.2802582,-1.6177979,10.95871,0.37617493,-0.055114746,0.17880249
2022/12/14 18:49,18240,-0.12854868,-2.661462,0.7138729,-0.52287525,0.27833587,9.788745,0.03041069,0.002838275,-0.8183783,0.57386756,-0.42791748,-2.349823,10.833008,0.40919495,-0.046585083,0.29917908
2022/12/14 18:49,18281,2.0016756,-1.5016046,-1.1630688,-0.55101997,0.48137543,9.779317,0.038561877,-0.005016283,-0.82129824,0.5691722,1.4611053,-0.9073181,8.360992,0.65953064,0.34117126,0.107421875
2022/12/14 18:49,18320,0.47350776,-1.4700955,-3.0251951,-0.6802484,0.60567015,9.764262,0.04641826,-0.005330811,-0.82420516,0.56436044,-0.64219666,-1.0114746,7.38356,-0.06059265,0.23890686,-0.03211975
2022/12/14 18:49,18360,-0.6154048,-2.813743,-0.37081623,-0.744616,0.52716935,9.764119,0.046609692,-6.23E-04,-0.82699203,0.56027794,-1.3832092,-2.3761597,9.43898,-0.053131104,0.09295654,0.12872314
2022/12/14 18:49,18400,0.268757,-2.246215,-1.3127317,-0.73235244,0.50971335,9.765973,0.045133315,-6.63E-04,-0.8274266,0.5597568,-0.3447113,-1.5842743,8.66745,-0.04460144,-0.12008667,0.36203003
2022/12/14 18:49,18441,0.9680264,-1.2315602,-0.5248022,-0.6691879,0.48354578,9.771835,0.041816644,-0.001217517,-0.82582545,0.56237197,0.2089386,-0.63139343,9.311493,-0.05632019,-0.060440063,0.47601318
2022/12/14 18:49,18480,-0.069408834,-0.99321663,-0.10259247,-0.6257325,0.45299375,9.776177,0.03940452,-9.83E-04,-0.8237506,0.5655805,-0.72958374,-0.5493927,9.909439,-0.07017517,-0.11050415,0.48771667
2022/12/14 18:49,18520,-0.018145978,-1.0649946,-0.052905083,-0.6095634,0.43227178,9.778137,0.038125735,-4.48E-04,-0.8218532,0.5684219,-0.73617554,-0.63378906,9.841217,-0.049926758,0.017318726,0.4387207
2022/12/14 18:49,18560,0.45519543,-0.8485411,-0.39311314,-0.5980678,0.41517487,9.779588,0.03690129,1.91E-04,-0.81826496,0.5736556,-0.03286743,-0.38238525,9.523376,-0.07443237,-0.037002563,0.5878601
2022/12/14 18:49,18600,0.70957583,-0.624343,0.36535072,-0.57572883,0.37354812,9.782607,0.03474566,0.001534931,-0.8169573,0.5756484,0.22151184,-0.21539307,10.443344,-0.14581299,0.006668091,0.6400604
2022/12/14 18:49,18640,1.2106469,-0.26417217,0.1104517,-0.58855534,0.34815288,9.78278,0.034796752,0.002986962,-0.81574327,0.5773588,0.601593,0.038391113,9.7921295,-0.061645508,0.10360718,0.47280884
2022/12/14 18:49,18681,0.89753467,-0.4487642,0.12135887,-0.5935827,0.32393026,9.783308,0.03449638,0.004289741,-0.816292,0.57659256,0.22569275,-0.10586548,10.018982,-0.06591797,0.1749878,0.37480164
2022/12/14 18:49,18720,1.0062206,-0.078256786,0.37616634,-0.6485245,0.30558878,9.78041,0.03617748,0.006379318,-0.81705815,0.5753838,0.3932953,0.28797913,10.226669,1.37E-04,0.09616089,0.2661438
2022/12/14 18:49,18760,0.6286265,-0.039847404,-0.9615736,-0.64438987,0.31835604,9.780276,0.03624928,0.005540565,-0.81878597,0.5729266,-0.038253784,0.28797913,8.888916,-0.071243286,-0.029541016,0.21395874
2022/12/14 18:49,18800,0.58161557,-0.070589125,-0.035668373,-0.6264823,0.259896,9.783168,0.03349754,0.007676176,-0.82099557,0.5698993,-0.10649109,0.1545105,9.945358,-0.18841553,-0.010375977,0.12339783
2022/12/14 18:49,18840,0.5875084,0.49333006,-0.12864399,-0.60572034,0.21990095,9.785455,0.03181589,0.008269863,-0.82345015,0.5664355,-0.03526306,0.7662201,9.673019,-0.013717651,-0.029541016,0.13938904
2022/12/14 18:49,18880,0.53949565,0.82163763,-1.0945139,-0.59866637,0.21504772,9.785998,0.03123716,0.008397657,-0.8255037,0.563469,0.009017944,1.049942,8.7560425,-0.12237549,0.006668091,0.086120605
2022/12/14 18:49,18921,0.38347954,0.39802736,0.569273,-0.59976393,0.133882,9.787377,0.028945694,0.011828783,-0.82858336,0.5589918,-0.27288818,0.36639404,10.78392,-0.2012024,0.01626587,9.00E-04
2022/12/14 18:49,18960,0.41483885,0.20890985,0.23716545,-0.6131815,0.116020165,9.786774,0.029467318,0.01238735,-0.8310037,0.5553477,-0.013717651,0.49209595,9.896881,0.045944214,0.057800293,0.12979126
2022/12/14 18:49,19000,0.62048924,0.75930357,-0.37201595,-0.6320482,0.12904975,9.78541,0.030569632,0.012501113,-0.83271784,0.5527117,-0.06997681,0.90089417,9.6658325,-0.06059265,0.075912476,0.10209656
2022/12/14 18:49,19040,0.38485748,0.91765845,0.7838869,-0.6444861,0.124833286,9.784653,0.031111142,0.012641599,-0.834026,0.5507023,-0.23458862,1.1295471,10.735443,0.06085205,0.033309937,0.17985535
2022/12/14 18:49,19080,0.6498078,1.5309045,0.39173508,-0.6376909,0.18502645,9.784146,0.032470573,0.009656805,-0.83433044,0.5502228,0.007232666,1.693985,10.339798,0.106658936,-0.027420044,0.18838501
2022/12/14 18:49,19121,0.04334867,1.0536349,1.7491074,-0.62520504,0.20783968,9.784493,0.032327358,0.008692939,-0.8355979,0.5483207,-0.8834076,0.42025757,12.110321,-0.06591797,-0.031677246,0.057357788
2022/12/14 18:49,19160,-0.42668355,-1.112698,3.0167065,-0.65685415,0.21095945,9.782353,0.034530655,0.009319253,-0.8367819,0.5463669,-0.93130493,-1.056366,12.845337,0.15779114,0.20481873,0.15962219
2022/12/14 18:49,19200,1.2856157,-0.62058586,1.5672188,-0.74222976,0.3037319,9.773803,0.040192835,0.007698336,-0.8370363,0.5456148,0.5878296,-0.25071716,11.470459,0.25898743,0.24209595,0.19052124
2022/12/14 18:49,19240,1.0559902,-1.0275469,1.0744333,-0.76653993,0.36273757,9.769915,0.043051973,0.00537406,-0.838627,0.54297554,-0.1166687,-0.80436707,11.186752,0.15779114,-0.014633179,-0.08325195
2022/12/14 18:49,19280,-1.45322,-1.9952612,0.035508156,-0.76923287,0.50447255,9.76341,0.04766928,-0.001850272,-0.84128964,0.53847563,-2.2546997,-1.3765869,9.668228,0.65101624,-0.0753479,0.074401855
2022/12/14 18:49,19320,-0.42535388,-1.9982927,-2.6893358,-0.7390434,0.7095964,9.752982,0.051345143,-0.010904572,-0.8411344,0.53827286,-0.7547302,-1.2065887,7.2033997,0.30586243,-0.14247131,0.20542908
2022/12/14 18:49,19361,0.8480769,-2.0955486,-1.5256891,-0.70190597,0.7354073,9.753814,0.05042783,-0.012255192,-0.841885,0.537156,0.05331421,-1.3556366,8.508835,0.015045166,0.04182434,-0.040649414
2022/12/14 18:49,19400,0.75460255,-1.755091,-1.6540022,-0.7245866,0.7179388,9.753457,0.05080549,-0.010880343,-0.8442767,0.53338283,-0.019699097,-0.9575958,8.310715,-0.06803894,0.059936523,-0.17167664
2022/12/14 18:49,19440,0.20521706,-1.0802813,-1.2377377,-0.75628096,0.6187102,9.757849,0.049101852,-0.005251104,-0.8476514,0.5282504,-0.49674988,-0.40872192,8.733292,-0.41426086,0.108932495,-0.22920227
2022/12/14 18:49,19480,0.49929732,-1.0337247,1.0838165,-0.76327574,0.34687895,9.770746,0.042465102,0.005227836,-0.85223955,0.5213992,-0.50094604,-0.75408936,11.7248535,-0.59321594,-0.1179657,-0.42308044
2022/12/14 18:49,19521,-1.3544396,-2.0036826,2.2807903,-0.71205735,0.2570996,9.777385,0.037902452,0.007449941,-0.8567703,0.51424956,-2.2864227,-2.052948,11.7846985,0.2675171,-0.13926697,-0.1184082
2022/12/14 18:49,19560,0.85074985,0.3509652,-2.106433,-0.677024,0.41554096,9.774424,0.040624663,-0.001136434,-0.85701525,0.5136859,0.3471985,0.80693054,7.5553436,0.2760315,-0.097717285,0.023269653
2022/12/14 18:49,19600,0.4330129,0.30833298,-1.2051992,-0.6485029,0.3915202,9.777349,0.03816902,4.66E-04,-0.85952085,0.5096733,-0.40516663,0.5495453,9.014008,-0.34927368,-0.019958496,-0.27394104
2022/12/14 18:49,19640,-0.6111847,-0.5002725,1.0598593,-0.666039,0.2587538,9.780584,0.03595856,0.006200422,-0.86296856,0.5039383,-1.3682404,-0.2932129,10.971268,-0.15646362,0.059936523,-0.23664856
2022/12/14 18:49,19680,-0.50193256,-0.43705916,-0.2871666,-0.6910692,0.24997571,9.779076,0.03706656,0.006524709,-0.86528164,0.4998711,-1.047409,-0.13398743,9.319275,0.08003235,0.026916504,-0.114151
2022/12/14 18:49,19721,0.77391046,0.11824949,-1.0591669,-0.7068429,0.23470122,9.778327,0.0370708,0.007993101,-0.86704284,0.49678826,0.112579346,0.32688904,8.994858,-0.17990112,0.046081543,-0.15356445
2022/12/14 18:49,19760,-0.031077325,-0.30810243,0.4565344,-0.711541,0.14271419,9.779761,0.034980606,0.011954987,-0.86954343,0.49247098,-0.82714844,-0.16511536,10.391281,-0.16390991,0.005615234,-0.1929779
2022/12/14 18:49,19800,0.01848048,0.25784695,0.14140701,-0.7015507,0.110057965,9.780905,0.033967987,0.01260228,-0.8717452,0.48861805,-0.6451874,0.5190277,9.978882,0.02357483,-0.039138794,-0.15782166
2022/12/14 18:49,19840,0.17314261,0.5862183,-0.54434013,-0.69119316,0.14409775,9.781199,0.034412548,0.010647493,-0.87431735,0.48401615,-0.5177002,0.7841797,9.27858,0.10559082,-0.050857544,-0.17167664
2022/12/14 18:49,19880,0.53487474,0.5209352,-0.75956154,-0.6703594,0.16111343,9.782384,0.033953328,0.009185405,-0.8770053,0.4791915,-0.07357788,0.69081116,9.2187195,-0.059524536,-0.066833496,-0.22599792
2022/12/14 18:49,19920,0.080026805,0.42507422,0.5222254,-0.6292924,0.122748554,9.785669,0.030926228,0.00970604,-0.88062406,0.4727057,-0.74035645,0.36160278,10.424194,-0.06803894,-0.11264038,-0.25689697
2022/12/14 18:49,19961,-0.43007588,0.702235,0.21447945,-0.5815788,0.116168305,9.788701,0.02868812,0.008382801,-0.8833325,0.4677931,-1.01091,0.9493866,10.118332,0.0256958,-0.1690979,-0.17700195
2022/12/14 18:49,20000,-0.12763172,0.84065956,-0.06428337,-0.516033,0.14585237,9.791979,0.026493618,0.005180209,-0.88525075,0.46433,-0.5566101,0.9966736,9.741257,0.097076416,-0.18721008,-0.099243164
2022/12/14 18:49,20040,0.0510315,0.6720873,-0.34849358,-0.44549036,0.19003783,9.7946825,0.024361603,0.001459284,-0.8864161,0.46224555,-0.36566162,0.8542175,9.531158,0.09814453,-0.1776123,-0.015075684
2022/12/14 18:49,20080,0.29651162,0.7075865,-0.08826637,-0.36965075,0.23869896,9.796773,0.022127302,-0.002652651,-0.8870122,0.46120793,-0.053222656,1.0445557,9.844803,0.13967896,-0.1690979,0.004089356
2022/12/14 18:49,20121,0.6827171,1.4195068,-0.20386219,-0.31451464,0.27931798,9.797625,0.020511026,-0.005237316,-0.887956,0.45944095,0.34361267,1.6532745,9.895081,-0.08721924,-0.078552246,-0.15675354
2022/12/14 18:49,20160,-0.37206352,0.71916974,2.4997406,-0.2918461,0.20514318,9.800159,0.017775536,-0.001898062,-0.8904331,0.45476303,-0.73976135,0.5669098,12.6579895,-0.28321838,0.026916504,-0.23132324
2022/12/14 18:49,20200,-0.5035665,-1.6838902,4.5240116,-0.3411941,0.095598556,9.800246,0.017942166,0.003637839,-0.8931856,0.44931534,-0.99594116,-1.7398987,14.645172,-0.04460144,0.09616089,-0.23664856
2022/12/14 18:49,20240,-0.87245226,-2.1290107,1.6317205,-0.39136672,0.24137834,9.795864,0.024476212,-0.003673438,-0.89445555,0.4464714,-1.2012482,-1.78479,11.034119,0.7958832,0.11213684,0.007293701
2022/12/14 18:49,20280,0.62199914,-1.4933689,-2.3779583,-0.41162863,0.5246651,9.78395,0.030748956,-0.01455653,-0.89401877,0.44673598,0.25802612,-0.8959503,7.409897,0.5988159,0.04928589,0.044570923
2022/12/14 18:49,20321,0.6164376,-1.2892027,-2.4570045,-0.43651694,0.6327221,9.776478,0.034501296,-0.018727241,-0.8943949,0.4455522,0.088027954,-0.72416687,7.9384155,-0.009460449,0.11000061,-0.07899475
2022/12/14 18:49,20360,0.59802127,-1.7823961,-0.16912556,-0.49048316,0.57327545,9.777585,0.035522174,-0.014581363,-0.89559925,0.4432015,0.08743286,-1.2413177,9.887894,-0.12556458,0.15473938,-0.13012695
2022/12/14 18:49,20400,0.53477585,-1.5942445,0.23394012,-0.5051327,0.5347735,9.77902,0.03502851,-0.013184457,-0.89664197,0.4411716,0.12753296,-0.9749603,10.145279,0.03955078,-0.04978943,-0.023605347
2022/12/14 18:49,20440,0.26325846,-1.168808,-0.38220787,-0.48067364,0.5585805,9.778922,0.034591783,-0.015004798,-0.89715695,0.44009957,-0.40756226,-0.53741455,9.443176,0.11412048,-0.03060913,-0.016143799
2022/12/14 18:49,20480,-0.4618172,-0.8722118,-0.46636963,-0.4724816,0.5699369,9.778667,0.034334913,-0.015411098,-0.8971343,0.4401518,-0.955246,-0.23994446,9.526978,-0.033950806,-0.033813477,0.088256836
2022/12/14 18:49,20520,0.050776064,-0.48533136,-0.19133186,-0.46640494,0.55359656,9.779898,0.033840545,-0.014793602,-0.8960831,0.4423472,-0.33694458,0.091659546,9.687378,-0.009460449,0.003479004,0.20649719
2022/12/14 18:49,20560,0.93568546,-0.31438124,-0.21224117,-0.45323876,0.55196285,9.780608,0.033238135,-0.014932886,-0.8949906,0.44459417,0.396286,0.19342041,9.653259,-0.003067017,-0.011444092,0.11807251
2022/12/14 18:49,20601,0.12370074,-0.62968767,-0.5960436,-0.44509643,0.5470409,9.781259,0.03269081,-0.014768305,-0.89477605,0.44507194,-0.394989,-0.06576538,9.185791,-0.03715515,2.75E-04,0.088256836
2022/12/14 18:49,20640,0.5394556,-0.50078833,-0.32557678,-0.43540952,0.5072938,9.783836,0.03123924,-0.012945621,-0.894566,0.44565484,0.119155884,0.038391113,9.602982,-0.14048767,0.006668091,0.086120605
2022/12/14 18:49,20680,0.64788866,-0.27084604,-0.34740067,-0.4341335,0.4606151,9.7862015,0.030124122,-0.010972385,-0.89441806,0.4460813,0.13711548,0.2275238,9.488068,-0.092544556,-0.010375977,0.072265625
2022/12/14 18:49,20720,0.53884864,-0.013072878,-0.82404804,-0.41718912,0.40878496,9.789242,0.02807676,-0.008697007,-0.8944397,0.44622156,0.09341431,0.4220581,9.151672,-0.21398926,-0.005050659,0.033920288
2022/12/14 18:49,20760,0.23328787,0.22788918,-0.39625072,-0.4192052,0.30479497,9.792945,0.025703318,-0.003696425,-0.8948049,0.4457016,-0.17831421,0.508255,9.65625,-0.3226471,0.002410889,0.01473999
2022/12/14 18:49,20800,0.11445129,0.17086989,0.25299835,-0.4164984,0.18922852,9.795974,0.02309634,0.001431724,-0.8948798,0.44570687,-0.31658936,0.35742188,10.231461,-0.260849,0.036499023,0.06907654
2022/12/14 18:49,20841,0.2999475,0.734114,0.17565918,-0.43788636,0.1207963,9.796124,0.02273208,0.00446345,-0.8944536,0.44656035,-0.12086487,0.8829498,10.029755,-0.08401489,0.052474976,0.119140625
2022/12/14 18:49,20880,0.322693,0.8561889,-0.3619938,-0.43768793,0.10339514,9.796331,0.022318223,0.005287966,-0.8937557,0.44796732,-0.13882446,0.8907318,9.607178,-0.09361267,-0.037002563,0.12339783
2022/12/14 18:49,20920,0.34084776,0.74716383,-0.12062168,-0.4160706,0.076283015,9.797523,0.020577764,0.006120042,-0.8926547,0.45022953,-0.07536316,0.8631897,9.763992,-0.07017517,-0.031677246,0.18412781
2022/12/14 18:49,20960,0.7753059,1.1790466,-0.30705643,-0.41106114,0.06679582,9.797804,0.020172434,0.006510856,-0.8912057,0.45310378,0.38970947,1.286972,9.598206,-0.066970825,0.010940552,0.19691467
2022/12/14 18:49,21000,0.29818347,1.3189604,-0.050354958,-0.40302467,0.067248486,9.798134,0.019862214,0.006180672,-0.8901045,0.45528153,-0.16096497,1.41745,9.835815,0.004394531,-0.014633179,0.17134094
2022/12/14 18:49,21041,0.8668664,1.5852218,0.26004314,-0.3956839,0.09397193,9.798213,0.020225864,0.00473744,-0.8885253,0.4583571,0.5118103,1.6532745,10.336807,0.057662964,0.014129639,0.21607971
2022/12/14 18:49,21080,0.32681367,1.2143112,0.9680643,-0.37511063,0.17419584,9.797925,0.021234388,-9.52E-06,-0.8872153,0.46086672,-0.028686523,1.4785004,10.739639,0.3239746,-0.10411072,0.21289062
2022/12/14 18:49,21120,0.74640644,1.2151272,-0.1801405,-0.33598024,0.29078165,9.796578,0.02183861,-0.005377589,-0.8855959,0.46391162,0.48187256,1.3330536,9.919617,-0.028625488,-0.088134766,0.16920471
2022/12/14 18:49,21160,0.96295816,-0.16547668,2.8878164,-0.3098651,0.19848359,9.799743,0.018696373,-0.001606423,-0.884989,0.46523356,0.6464844,-0.006500244,12.87886,-0.3514099,0.036499023,0.033920288
2022/12/14 18:49,21201,0.19139853,-1.5961337,4.472312,-0.31895876,0.098125316,9.800971,0.016734509,0.003087839,-0.8864411,0.46252847,-0.26750183,-1.5471649,14.536835,0.04168701,0.040756226,-0.1333313
2022/12/14 18:49,21240,-0.09504017,-1.2302574,0.9711237,-0.34937996,0.229957,9.797726,0.021868952,-0.00330134,-0.8876204,0.4600444,-0.48597717,-0.9947052,10.685165,0.5412903,0.038635254,-0.059814453
2022/12/14 18:49,21280,-0.80832934,-1.7286284,-0.6036053,-0.36279342,0.44064915,9.790025,0.027830232,-0.012471905,-0.8878126,0.45919356,-1.2174072,-1.3209229,9.216919,0.6073303,0.16433716,0.044570923
2022/12/14 18:49,21320,-1.0120802,-2.3979049,-2.9775705,-0.44150537,0.63476056,9.776121,0.03533366,-0.018856471,-0.8871889,0.45966485,-1.3329315,-1.8099365,6.9292603,0.3239746,0.05886841,0.11274719
2022/12/14 18:49,21360,0.5043441,-2.2140696,-1.0722561,-0.4631442,0.6205751,9.776031,0.035659216,-0.016496126,-0.8869335,0.460223,0.13232422,-1.5609436,9.067291,-0.1862793,0.1749878,-0.009750366
2022/12/14 18:49,21401,-0.30629796,-1.9008816,-0.41859722,-0.5517125,0.5276734,9.776889,0.037541803,-0.010327927,-0.8877366,0.45870215,-1.0779419,-1.3424683,9.582031,-0.16285706,0.18243408,-0.03425598
2022/12/14 18:49,21440,-0.6211514,-1.2783165,0.27369404,-0.5847242,0.47279045,9.77778,0.037600465,-0.007638692,-0.8875749,0.4590628,-1.1479797,-0.7127991,10.144669,0.004394531,0.013061523,0.11274719
2022/12/14 18:49,21480,-0.01970154,-0.73459756,-0.4008398,-0.57582825,0.4944219,9.777236,0.037648156,-0.009226965,-0.88649374,0.46111426,-0.39260864,-0.18487549,9.397079,0.14181519,-0.08706665,0.19477844
2022/12/14 18:49,21520,0.9005497,-0.7908781,-1.3054857,-0.5424937,0.5495754,9.776198,0.03751046,-0.012065401,-0.88599217,0.46202302,0.28915405,-0.26148987,8.5746765,0.08642578,0.014129639,-0.05343628
2022/12/14 18:49,21560,-0.5735747,-1.3485851,-0.9878378,-0.5796937,0.5247592,9.775427,0.038580805,-0.010171841,-0.88724834,0.4595633,-1.2185974,-0.85884094,9.031372,-0.12556458,0.16966248,-0.087524414
2022/12/14 18:49,21601,-0.001748025,-1.0528046,-0.13487339,-0.6668308,0.4515793,9.773525,0.04080232,-0.004905066,-0.88825804,0.45750272,-0.71881104,-0.5535736,9.819656,-0.16072083,0.18457031,-0.10775757
2022/12/14 18:49,21640,0.12352049,-0.749783,-0.1756134,-0.6954306,0.40267116,9.773669,0.040947128,-0.00199869,-0.8896005,0.45489588,-0.59851074,-0.23335266,9.643097,-0.029693604,0.019454956,-0.08432007
2022/12/14 18:49,21680,0.49206007,0.18930635,-1.2627096,-0.7171721,0.3530369,9.774017,0.04051604,0.001442448,-0.8905163,0.4531414,-0.2256012,0.56152344,8.721924,-0.35992432,0.07698059,-0.0864563
2022/12/14 18:49,21720,-0.2509145,-0.029989168,1.2920504,-0.75637907,0.13807352,9.776463,0.03725915,0.012558718,-0.8917034,0.4509091,-1.1797028,6.87E-04,11.547684,-0.5857544,0.12385559,-0.113082886
2022/12/14 18:49,21760,-0.28575778,0.025450492,1.5447874,-0.77313304,0.028439019,9.776086,0.0358809,0.016095174,-0.89238995,0.44954824,-0.95643616,0.12098694,10.968277,0.11198425,-0.066833496,-0.019348145
2022/12/14 18:49,21801,0.8511865,0.46158788,-1.7404356,-0.73034227,0.10129967,9.7788925,0.035329178,0.011831434,-0.89252096,0.4494643,0.18559265,0.5962372,8.144913,0.06510925,-0.14247131,0.032852173
2022/12/14 18:49,21840,0.8280534,0.26849064,-0.55464077,-0.68121177,0.053616494,9.782815,0.03183728,0.013526088,-0.8937264,0.44727677,-0.1968689,0.28199768,9.682587,-0.22676086,-0.08174133,-0.20895386
2022/12/14 18:49,21880,-0.5454135,0.3751659,-0.11586857,-0.6387877,-0.007784161,9.78582,0.029019272,0.0148295,-0.8954694,0.44392848,-1.1802979,0.43043518,9.635315,-0.0488739,-0.109436035,-0.13970947
2022/12/14 18:49,21920,-0.041602075,0.84621984,-0.33336258,-0.5941841,-0.040938083,9.7885475,0.026265636,0.015267917,-0.89663136,0.44173428,-0.6739197,0.76083374,9.635315,-0.16072083,-0.11050415,-0.15037537
2022/12/14 18:49,21960,-0.5010896,0.73132133,0.30417156,-0.5596669,-0.08921675,9.79026,0.023446372,0.016675971,-0.89798635,0.4390816,-0.999527,0.6088104,10.133301,-0.071243286,-0.0753479,-0.103500366
2022/12/14 18:49,22001,0.10456723,1.0230097,-0.21709442,-0.53054774,-0.0947231,9.79183,0.02201395,0.0161443,-0.8986361,0.4378446,-0.29862976,1.0164185,9.607773,-0.038208008,-0.0753479,-0.05555725
2022/12/14 18:49,22040,0.18847322,1.4079859,0.027954102,-0.5003033,-0.12032121,9.793141,0.01998919,0.016820982,-0.8991814,0.4367954,-0.33154297,1.2935486,10.021378,-0.14048767,-0.074279785,-0.06941223
2022/12/14 18:49,22080,-0.036356807,1.4051749,0.50557804,-0.4721712,-0.13080835,9.794402,0.018622402,0.016208442,-0.89954025,0.43613973,-0.521286,1.315094,10.354172,0.045944214,-0.1030426,-0.03744507
2022/12/14 18:49,22120,-0.12524098,1.4820703,0.081059456,-0.43361878,-0.07867817,9.796742,0.018238991,0.012912792,-0.8998664,0.4355928,-0.5655823,1.4665375,10.015381,0.10346985,-0.04019165,-0.0630188
2022/12/14 18:49,22161,0.049762696,1.1719859,0.8793802,-0.45430025,-0.03631396,9.796055,0.020377854,0.011654702,-0.90056235,0.43409255,-0.42492676,1.0194092,10.923981,0.059783936,0.10574341,-0.1333313
2022/12/14 18:49,22200,-0.15583125,-0.2312102,2.0071125,-0.49294484,-0.023375424,9.794225,0.022538558,0.01211074,-0.9019364,0.4311103,-0.8421173,-0.6367798,12.219849,0.018249512,0.17178345,-0.19830322
2022/12/14 18:49,22240,-0.46625853,-1.0528083,1.2504053,-0.6253098,-0.057545908,9.786525,0.02757195,0.016306631,-0.903298,0.42781606,-1.0192871,-1.4154968,10.929367,-0.29600525,0.4540863,-0.17593384
2022/12/14 18:49,22280,-0.61481833,-3.3565767,5.4730654,-0.7099095,-0.27206013,9.777137,0.026586317,0.028198317,-0.9057753,0.4219824,-1.3377075,-3.7552185,15.669296,-0.13728333,-0.08067322,-0.20362854
2022/12/14 18:49,22320,-0.29926717,-2.4121547,0.31911087,-0.6841136,0.002714907,9.782759,0.033108573,0.011022866,-0.9052483,0.4234476,-0.8397217,-2.1295624,9.257019,1.5820465,-0.088134766,0.37054443
2022/12/14 18:49,22361,1.1303787,-0.5474887,-5.665394,-0.60121673,0.48801574,9.776031,0.038399905,-0.010760955,-0.902304,0.42925185,0.62493896,0.03718567,4.4913635,0.568985,-0.22555542,0.26081848
2022/12/14 18:49,22400,1.2056928,-0.7132542,-2.5517597,-0.574753,0.48709995,9.777668,0.036897745,-0.008645159,-0.902726,0.42854354,0.59739685,-0.26507568,7.789383,-0.45046997,0.13343811,-0.21002197
2022/12/14 18:49,22440,0.5832305,-1.1157088,0.26403713,-0.6185436,0.24589087,9.784035,0.03324237,0.003502023,-0.9050717,0.4239433,-0.0879364,-0.9546051,10.691147,-0.6198425,0.03224182,-0.2121582
2022/12/14 18:49,22480,0.4776135,-1.5435998,2.602641,-0.58531225,0.06813437,9.78893,0.028125176,0.009439744,-0.9063698,0.4214424,-0.36686707,-1.4783325,12.433533,1.37E-04,-0.14247131,-0.10029602
2022/12/14 18:49,22520,-0.69232285,-0.8992488,-0.61005783,-0.5409745,0.14764062,9.790605,0.028404456,0.003822478,-0.9069652,0.42022938,-1.1910706,-0.61402893,9.06189,0.3985443,-0.1030426,0.031784058
2022/12/14 18:49,22561,0.12177098,-0.07786086,-1.49086,-0.52055043,0.24053593,9.78987,0.029249635,4.96E-05,-0.9066711,0.42082295,-0.33872986,0.1940155,8.571686,-0.004119873,-0.026351929,0.04031372
2022/12/14 18:49,22600,0.35722214,-0.19703591,-0.3151121,-0.50903314,0.20888361,9.791203,0.027776366,0.001365768,-0.9064448,0.42140776,-0.15078735,0.001281738,9.65387,-0.08189392,-0.058303833,0.039245605
2022/12/14 18:49,22640,0.6244685,-0.37605384,-0.4078493,-0.45632958,0.19660203,9.794054,0.02487433,6.57E-04,-0.9062176,0.42207882,0.17602539,-0.17828369,9.439575,-0.03715515,-0.1648407,0.046707153
2022/12/14 18:49,22681,0.36580393,-0.59940135,-0.102077484,-0.390812,0.16278909,9.797508,0.021111978,9.57E-04,-0.906281,0.42214698,-0.079559326,-0.40634155,9.9184265,-0.09573364,-0.15631104,0.010482788
2022/12/14 18:49,22720,-0.036720216,-0.34113494,-0.31063938,-0.35451072,0.14064787,9.799232,0.01932883,0.001124548,-0.90626776,0.42226046,-0.43449402,-0.12501526,9.482681,-0.004119873,-0.033813477,0.0541687
2022/12/14 18:49,22760,0.23370537,0.12246983,-0.9064808,-0.3401574,0.12386696,9.799966,0.01822457,0.001884492,-0.90569323,0.42353758,-0.066986084,0.28678894,9.099014,-0.1234436,-0.008239746,0.08718872
2022/12/14 18:49,22800,0.13044217,0.17326374,-0.18902206,-0.3359078,0.047125645,9.800782,0.01619086,0.005584763,-0.9052029,0.4246343,-0.22740173,0.22213745,9.923218,-0.24168396,-0.039138794,0.0818634
2022/12/14 18:49,22840,0.19770172,0.56862116,0.13866043,-0.31536648,-0.014401241,9.801567,0.014035172,0.007587178,-0.9042094,0.42679134,-0.04244995,0.65548706,9.905853,-0.080825806,-0.055114746,0.16920471
2022/12/14 18:49,22880,0.22375348,0.894792,-0.21162224,-0.29975986,-0.035450753,9.802003,0.012911839,0.008337034,-0.902984,0.42939913,-0.090927124,0.8925171,9.748428,-0.09893799,-0.012496948,0.13618469
2022/12/14 18:49,22920,0.47378147,0.93457896,-0.023470879,-0.29783657,-0.049852245,9.802,0.012601714,0.008849355,-0.9019088,0.43165195,0.18739319,0.8817444,9.922607,-0.006256104,0.003479004,0.13618469
2022/12/14 18:49,22961,0.27855158,0.7883038,-0.45841312,-0.29310042,-0.030401656,9.802221,0.012883335,0.007777103,-0.9009958,0.43356675,-0.08375549,0.7404938,9.412643,0.029968262,0.017318726,0.10209656
2022/12/14 18:49,23000,0.17754164,0.84222823,-0.55370235,-0.30969408,-0.020411488,9.801738,0.013884917,0.007892336,-0.8999694,0.43566045,-0.11906433,0.8332672,9.41983,-0.029693604,0.06526184,0.15536499
2022/12/14 18:49,23040,0.32190895,1.180488,-0.077013016,-0.3285562,-0.02464802,9.801114,0.014602648,0.008517288,-0.89868504,0.4382687,-0.046035767,1.1977844,9.919617,-0.036087036,0.04928589,0.16815186
2022/12/14 18:49,23080,0.70793647,1.1368827,0.8413372,-0.33938006,-0.016132409,9.800763,0.015329964,0.008166974,-0.8976065,0.44045526,0.25862122,0.95835876,10.958099,0.06085205,0.038635254,0.10848999
2022/12/14 18:49,23121,0.050313056,1.4400725,1.4637833,-0.3553206,0.08112557,9.799875,0.01856683,0.003388653,-0.89663416,0.44236967,-0.08076477,1.6969757,11.107742,0.379364,0.014129639,0.16708374
2022/12/14 18:49,23160,0.3268785,1.3405865,1.3335724,-0.33667648,0.21997079,9.7984,0.020460593,-0.003059904,-0.89579344,0.44398886,0.017410278,1.3851318,11.592575,0.21105957,-0.064697266,0.07972717
2022/12/14 18:49,23200,0.28385434,-0.45311067,1.6217194,-0.34616435,0.28014365,9.796534,0.022395814,-0.004821829,-0.8955498,0.44437122,-0.041259766,-0.37580872,11.620697,0.019302368,0.120651245,0.025405884
2022/12/14 18:49,23240,0.5459509,-1.2574956,2.937767,-0.37224847,0.27785075,9.795643,0.02330031,-0.004279706,-0.8960008,0.44342005,0.10119629,-1.0390015,12.838745,0.19613647,0.06845093,-0.06088257
2022/12/14 18:49,23280,0.16674927,-1.4306437,0.111759186,-0.34669098,0.46753156,9.789362,0.026398258,-0.01358626,-0.89679754,0.44144392,-0.20465088,-0.9474182,9.811279,0.76286316,-0.21383667,-0.033187866
2022/12/14 18:49,23321,-0.22049364,-1.271717,-2.648818,-0.2663894,0.75898224,9.773605,0.029794315,-0.030110307,-0.89672166,0.44056323,-0.5248871,-0.5290375,7.0094604,0.6755066,-0.0710907,0.004089356
2022/12/14 18:49,23360,-0.35144785,-1.977915,-2.967163,-0.28900942,0.8020416,9.769524,0.03115981,-0.028894743,-0.89737576,0.43921626,-0.66134644,-1.2401123,7.3452606,-0.44195557,0.18777466,-0.14077759
2022/12/14 18:49,23400,-0.823548,-2.0820935,1.113102,-0.39355657,0.54096544,9.783806,0.029992245,-0.014452495,-0.8995059,0.43563828,-1.3215485,-1.5399933,11.327408,-0.56658936,0.22612,-0.2206726
2022/12/14 18:49,23440,-0.72305644,-1.530709,1.6943645,-0.43851253,0.4117311,9.788185,0.029313004,-0.009271377,-0.9003127,0.4341564,-1.1378021,-1.0342102,11.333389,0.052337646,-0.007171631,0.030731201
