Timestamp,Milliseconds,linear-x,linear-y,linear-z,gravity-x,gravity-y,gravity-z,rotation-x,rotation-y,rotation-z,rotation-w,acc-x,acc-y,acc-z,gyr-x,gyr-y,gyr-z
2023/4/21 14:56,2,-0.21628249,-0.4558946,-0.003387451,0.0539791,1.6965652,9.65863,0.043243866,0.07528288,0.87936217,0.46817166,-0.40034914,0.87218386,8.934052,-0.0193944,-0.007482879,0.028404398
2023/4/21 14:56,41,-0.23947394,0.10836351,-0.095383644,0.08355877,1.6724404,9.662626,0.043922212,0.07357995,0.87991136,0.4673466,0.08315059,1.8022441,9.505039,-0.12079505,-0.24693501,0.17012095
2023/4/21 14:56,81,0.22542447,-0.09156418,0.16275406,0.2837849,1.6075925,9.669824,0.051170852,0.06601308,0.8817306,0.46430042,0.43280178,1.5233307,9.539735,-0.20387027,-0.6024481,0.2043284
2023/4/21 14:56,120,0.6639209,-0.2222681,-0.26166725,0.5036645,1.4866558,9.680216,0.058032904,0.05548492,0.8835847,0.4613369,1.2131611,1.0099207,9.695418,-0.49341187,-0.13331741,0.16767757
2023/4/21 14:56,160,0.29168695,0.1432122,0.53683376,0.5992744,1.2894825,9.703014,0.057756335,0.04413784,0.8831608,0.46340373,0.9545867,1.4419748,10.169347,-0.25273806,-0.10155336,-0.20493926
2023/4/21 14:56,201,0.12237424,0.450364,0.5461168,0.5787076,1.3315408,9.698582,0.058097646,0.04620205,0.88038015,0.4684238,0.47108695,1.7807087,10.07483,0.3813214,0.24296449,-0.2415901
2023/4/21 14:56,240,-0.25978196,0.37994695,-0.33322048,0.43167877,1.5564196,9.672724,0.05703921,0.05978996,0.87870276,0.47016287,0.15987046,1.925624,9.181859,0.38742986,0.47997323,0.006413896
2023/4/21 14:56,280,-0.06649166,-0.086683035,0.081645966,0.20284612,1.6534201,9.664131,0.048877258,0.0698386,0.8797959,0.4676459,0.13579269,1.4084753,9.586395,0.07834116,0.59236914,0.13713521
2023/4/21 14:56,320,0.18831451,-0.13104439,0.48214817,0.14110059,1.5524851,9.681955,0.043511573,0.06681607,0.881118,0.46612594,0.12023934,1.6144075,10.480713,-0.45798272,-0.18951537,-0.057114217
2023/4/21 14:56,361,-0.209458,0.1979003,0.27850914,0.33593333,1.4214003,9.697276,0.049312774,0.056078445,0.8802401,0.46861586,0.2388336,1.5653547,9.575627,-0.22708246,-0.63665557,-0.048562355
2023/4/21 14:56,400,0.4925482,-0.26175296,-0.12955856,0.45239916,1.4015177,9.695436,0.054144554,0.052332923,0.8797447,0.46944532,1.0432707,1.1080264,9.445219,0.20173231,0.06704049,0.016187452
2023/4/21 14:56,440,0.35036594,-0.19830191,-0.61967564,0.44328457,1.456309,9.687778,0.054986306,0.055111513,0.88022566,0.46812606,0.9139087,1.2037393,9.038139,-0.065818794,-0.001374406,0.06261184
2023/4/21 14:56,480,0.33275026,-0.119752645,0.14583683,0.6123102,1.2810775,9.703315,0.05852415,0.04293713,0.8790804,0.47111458,0.7200901,1.2527922,9.944422,-0.4262187,-0.3422272,-0.27213246
2023/4/21 14:56,520,-0.30717224,0.5391084,0.46288013,0.6647014,1.2486417,9.704096,0.06030224,0.03990631,0.87671244,0.47554857,0.38359937,1.7268702,9.938439,0.26892552,0.03283304,-0.040010497
2023/4/21 14:56,561,-0.19725955,0.06800771,-0.09412193,0.58167166,1.4150876,9.686566,0.060656056,0.049430765,0.8763129,0.47534528,0.4423731,1.4754742,9.527771,0.36421767,0.17821468,-0.019241689
2023/4/21 14:56,600,-0.04809296,0.039466023,0.19363976,0.5983472,1.4488372,9.68056,0.062278893,0.05049907,0.8757955,0.4759763,0.59551376,1.662264,9.3997555,-0.14400724,-0.26037365,-0.074217945
2023/4/21 14:56,641,0.22691786,-0.019926906,0.2701273,0.6745784,1.4092151,9.681397,0.064790145,0.046780128,0.8752604,0.4770043,0.9569795,1.3450655,9.809077,0.04291202,-0.10766183,-0.008246438
2023/4/21 14:56,680,0.2308302,-0.07215345,-0.39791203,0.6791823,1.4596539,9.673598,0.066270016,0.048908368,0.87483895,0.47736058,0.8696415,1.4335998,9.295518,0.21150586,0.17332791,-0.029015245
2023/4/21 14:56,720,0.021185398,0.18022454,-0.2099905,0.63152856,1.5273005,9.66638,0.065832205,0.053083733,0.87438536,0.4778059,0.6230312,1.7280666,9.341131,0.050242186,0.07925743,-0.037567105
2023/4/21 14:56,761,-0.03617239,0.14012742,-0.3147812,0.60758734,1.5452739,9.665058,0.0652795,0.054385282,0.87366056,0.47905958,0.58594245,1.6861922,9.230911,-0.0193944,0.053601846,-0.010689827
2023/4/21 14:56,800,0.09426814,0.036848307,-0.17684078,0.56321275,1.5493217,9.667098,0.06338539,0.055654995,0.87370086,0.47909465,0.65294147,1.5785152,9.37822,0.002596101,0.20509197,0.030847786
2023/4/21 14:56,840,-0.008896172,0.12150395,-0.12299156,0.48568252,1.5495039,9.671274,0.0598626,0.057608515,0.8741472,0.47850227,0.49501517,1.6144075,9.404541,-0.07437065,0.19165333,0.07849387
2023/4/21 14:56,881,0.091243505,-0.15807891,-0.22010422,0.43394303,1.5072309,9.680409,0.05583369,0.057153463,0.8754482,0.4766618,0.59790653,1.4431711,9.562467,-0.063375406,0.2673984,0.1395786
2023/4/21 14:56,920,0.0341388,-0.19274163,0.098189354,0.31569323,1.5248137,9.682234,0.0512825,0.06093874,0.87697893,0.4738824,0.28549364,1.3426726,9.649955,0.18707198,0.36024716,0.10903624
2023/4/21 14:56,961,-0.007924005,-0.007214189,0.093232155,0.22856194,1.5718346,9.677163,0.04835807,0.06529553,0.8779755,0.47175947,0.22926232,1.5833008,9.613913,0.050242186,0.08536591,0.07116371
2023/4/21 14:56,1000,0.22733793,-0.012309194,0.046566963,0.23450758,1.5516818,9.680272,0.048180163,0.06480601,0.8781788,0.47146675,0.42921257,1.538884,9.603145,-0.09758285,0.02183779,-0.008246438
2023/4/21 14:56,1040,0.08586581,0.16586125,0.35632896,0.22398733,1.5584595,9.679433,0.047880195,0.06475927,0.87762654,0.47253087,0.2388336,1.7077276,9.859326,0.17118995,0.013285928,-0.005803049
2023/4/21 14:56,1081,0.046339452,0.118276715,0.34392452,0.2566071,1.654909,9.662599,0.05165245,0.06838565,0.8776485,0.47158095,0.27711877,1.7555841,9.93485,0.2506001,-0.16996825,0.09071082
2023/4/21 14:56,1120,0.025789618,0.03394258,-0.3699484,0.37970078,1.7146398,9.64812,0.058581334,0.068198256,0.8779343,0.4702644,0.55363935,1.781905,9.050104,0.016034741,-0.36421767,0.10659285
2023/4/21 14:56,1161,0.19457707,-0.14705503,0.07839966,0.483014,1.6802149,9.649558,0.062409557,0.06414464,0.8779634,0.47028792,0.70812595,1.4682958,9.764811,-0.100026235,-0.074676074,-0.02535016
2023/4/21 14:56,1200,0.12567794,-0.17660093,0.4957037,0.5111162,1.6797503,9.648191,0.06343887,0.06314001,0.8775563,0.4710454,0.6553343,1.4790635,9.655936,0.19684553,-0.046577103,-0.09376506
2023/4/21 14:56,1240,0.10919869,-0.12187731,-0.46703625,0.52179796,1.7200289,9.640519,0.06529453,0.064860895,0.8766178,0.47230387,0.62781686,1.5665511,9.166306,-0.031611346,0.001068983,-0.070552856
2023/4/21 14:56,1281,0.07814276,-0.032820463,-0.15898037,0.52239287,1.6680672,9.649613,0.06413111,0.062400576,0.8761659,0.47363135,0.625424,1.5749259,9.432058,-0.19409671,0.024281178,-0.053449135
2023/4/21 14:56,1320,0.023099959,-0.05314207,0.057391167,0.5110519,1.6074858,9.660497,0.062195484,0.05986199,0.8758787,0.47474706,0.47228336,1.5785152,9.678668,-0.10491302,0.04382829,-0.06810947
2023/4/21 14:56,1360,-0.120444655,-0.07733452,0.039595604,0.48635364,1.5931575,9.6641445,0.060630836,0.059828002,0.8755108,0.47563154,0.36206397,1.5029917,9.617502,0.009926268,0.036498122,-0.06688777
2023/4/21 14:56,1401,-0.1286422,-0.1135602,-0.07558346,0.45601743,1.5822784,9.667411,0.05919063,0.05996418,0.87526935,0.47623977,0.33813575,1.4778671,9.478718,-0.09025268,0.046271678,-0.031458635
2023/4/21 14:56,1440,-0.008358568,-0.06256342,-0.47023582,0.4422985,1.4853939,9.683407,0.0561982,0.055905566,0.8754876,0.47669458,0.4543372,1.52692,9.628419,-0.34680852,0.07681404,-0.02535016
2023/4/21 14:56,1480,-0.022327334,-0.09322882,0.77750397,0.41145125,1.4508994,9.689994,0.053958535,0.055102438,0.8756461,0.4767558,0.4051348,1.3067802,10.189836,0.24082653,0.024281178,0.014965758
2023/4/21 14:56,1521,-0.0104357,-0.046879888,-0.12202072,0.4224083,1.5419877,9.675445,0.056955688,0.05927696,0.87589705,0.4754437,0.4447659,1.5677475,9.418898,0.14919944,-0.06001574,0.035734564
2023/4/21 14:56,1560,0.072835356,0.088435054,-0.07329655,0.43849298,1.5636088,9.671259,0.05788222,0.059580933,0.8757219,0.47561643,0.5093721,1.6072291,9.71815,-0.018172706,0.0193944,0.013744064
2023/4/21 14:56,1601,0.018342227,-0.12955236,-0.006694794,0.4506822,1.578866,9.668219,0.058864627,0.059941556,0.87529975,0.47622716,0.3225824,1.2587743,9.4404335,0.112548605,-0.001374406,0.083380654
2023/4/21 14:56,1640,0.11701131,-0.01632166,-0.40217018,0.46159628,1.6151408,9.66171,0.06012767,0.061437484,0.8761183,0.4743699,0.58474606,1.5916758,9.1974125,0.011147963,0.016951011,0.06994201
2023/4/21 14:56,1680,0.07090059,-0.06453383,0.12722492,0.44651872,1.6006541,9.664828,0.059019215,0.061217744,0.87674785,0.47337338,0.71171516,1.7065312,9.75165,-0.012064233,0.07559235,0.07727218
2023/4/21 14:56,1720,0.05210775,-0.123960376,0.096982956,0.45663428,1.6199754,9.661136,0.059948977,0.061848763,0.8766733,0.47331256,0.45912284,1.4814563,9.665508,0.090558104,-0.029473381,0.002748813
2023/4/21 14:56,1763,-0.07794455,-0.112481,-0.070064545,0.45028362,1.6570764,9.65514,0.060596555,0.063662566,0.8763731,0.47354543,0.3752245,1.52692,9.588788,0.15408622,0.09025268,-0.0387888
2023/4/21 14:56,1801,-0.2033792,0.06206262,0.29382992,0.37585422,1.7458429,9.6426735,0.05952469,0.06863332,0.87537026,0.4748402,0.31540394,1.7890836,9.627223,0.27992076,0.11712996,-0.110868774
2023/4/21 14:56,1840,0.15948954,0.17728543,-0.050570488,0.33630568,1.8168852,9.631003,0.059636824,0.07347771,0.87423307,0.47619432,0.46749774,1.9890338,9.522985,0.044133715,0.05482354,-0.0839915
2023/4/21 14:56,1881,-0.116131365,0.12451112,0.08725262,0.361627,1.8190233,9.629682,0.060954943,0.07285177,0.87338686,0.47767407,0.31779677,1.9842482,9.554092,-0.103691325,-0.19806722,-0.031458635
2023/4/21 14:56,1920,0.08236024,-0.049230218,0.05030632,0.43138874,1.7634944,9.6371355,0.06277804,0.068569414,0.87310106,0.4785934,0.53569317,1.7615662,9.426076,-0.13423368,-0.11743539,0.024739314
2023/4/21 14:56,1960,0.3716698,-0.07802391,0.40605164,0.45685753,1.7789185,9.633125,0.06427425,0.06867379,0.873246,0.4781152,0.82417786,1.6706389,9.4512005,0.1809635,0.004734066,0.15790401
2023/4/21 14:56,2001,0.01965341,0.030660033,-0.69602776,0.48051703,1.7994598,9.628159,0.065594226,0.069267176,0.8749014,0.47481263,0.5237291,1.8478572,8.914909,-0.12568182,-0.023364907,0.09926268
2023/4/21 14:56,2040,0.20270568,0.190148,-0.49091148,0.5160199,1.7256085,9.639833,0.06530575,0.065118745,0.87562215,0.4741103,0.7356434,1.816601,8.962766,-0.35902548,-0.122322164,0.011300675
2023/4/21 14:56,2080,0.11546165,0.038591504,-0.21885204,0.5566843,1.5710869,9.663963,0.06275166,0.05594601,0.8752981,0.47622,0.50099725,1.5713367,9.374631,-0.5581617,0.03283304,-0.13530266
2023/4/21 14:56,2121,-0.11685923,0.004678845,0.47180653,0.476322,1.3862065,9.696491,0.0553727,0.0505017,0.8749246,0.47842494,0.32976088,1.3247265,10.023384,-0.25884652,0.26862007,-0.074217945
2023/4/21 14:56,2160,-0.056343436,-0.034216404,0.44293118,0.37584427,1.3323823,9.708445,0.049540836,0.05052547,0.87508696,0.47876474,0.3429214,1.2731313,9.980313,-0.0645971,0.15744588,0.02351762
2023/4/21 14:56,2201,-0.21737754,-0.09348655,0.24191761,0.33296704,1.2784191,9.717261,0.046215642,0.049210604,0.87594765,0.47765902,0.11425728,1.5904793,9.968349,-0.13545538,0.0865876,0.105371155
2023/4/21 14:56,2240,0.12566742,0.0346272,0.12661934,0.3161885,1.2407157,9.722708,0.044481374,0.0479719,0.8765959,0.4767596,0.26395825,1.2527922,9.733704,-0.11835165,0.042606596,-0.046118967
2023/4/21 14:56,2280,-0.021438211,0.036076546,0.15222263,0.2831202,1.2071792,9.727947,0.042378053,0.04719669,0.8765993,0.4770223,0.301047,1.1977572,9.78515,-0.015729317,0.07925743,-0.030236939
2023/4/21 14:56,2320,-0.003723502,-0.013567328,0.08513546,0.26257172,1.2300881,9.725654,0.04183084,0.048784062,0.8764791,0.47713178,0.21370897,1.2384353,9.75165,0.082006246,-0.001374406,-0.046118967
2023/4/21 14:56,2361,0.036019534,0.009613872,0.03884697,0.24747173,1.2503216,9.723469,0.041690327,0.050029963,0.87604386,0.47781384,0.3237788,1.282852,9.712168,0.05635066,0.06826218,-0.026571855
2023/4/21 14:56,2400,-0.0531514,0.005929709,0.13509655,0.22245957,1.2777631,9.720506,0.0412556,0.051866636,0.8758602,0.47799242,0.13100705,1.2444173,9.758828,0.06734591,0.024281178,-0.04367558
2023/4/21 14:56,2441,0.060351655,1.78E-05,-0.09044647,0.22209491,1.2946965,9.718273,0.04170937,0.05268001,0.87565583,0.4782384,0.27472594,1.3187444,9.549307,0.024586603,0.002290677,-0.03268033
2023/4/21 14:56,2480,0.04815747,0.001487136,-0.17039204,0.21955465,1.2862377,9.719454,0.041272964,0.052367322,0.8763921,0.4769602,0.26635107,1.2900305,9.487093,-0.078035735,0.013285928,-0.02535016
2023/4/21 14:56,2521,-0.0823672,-0.046771765,0.060954094,0.21602906,1.2530954,9.723861,0.04033204,0.050935294,0.8761966,0.47755456,0.13339986,1.2037393,9.726525,-0.063375406,-0.027029991,-0.011911522
2023/4/21 14:56,2560,0.044178724,0.017514467,0.020554543,0.22833692,1.2407291,9.725165,0.040584847,0.050074343,0.8761842,0.477647,0.2795116,1.2539886,9.659526,0.009926268,-0.022143213,0.019852536
2023/4/21 14:56,2600,0.050953522,0.003668666,-0.05009651,0.23780212,1.2347592,9.725698,0.04082839,0.049602818,0.8765284,0.4770436,0.24242285,1.2336496,9.562467,-0.08414421,-0.006261184,-0.03634541
2023/4/21 14:56,2641,-0.059642613,-0.045289636,0.037220955,0.23886818,1.1935347,9.730817,0.039766576,0.047478538,0.8762432,0.47787273,0.1538884,1.1080264,9.736096,-0.08903099,-0.00503949,-0.03268033
2023/4/21 14:56,2680,-0.018262476,-0.049195766,0.10436249,0.23555115,1.1740618,9.733268,0.039341707,0.04683739,0.8756338,0.47908655,0.17183457,1.100848,9.744472,0.017256435,0.018172706,0.007635591
2023/4/21 14:56,2720,0.04726717,0.008033276,-0.034950256,0.23278326,1.18242,9.732321,0.039569948,0.047219157,0.8743101,0.4814421,0.25199413,1.1594721,9.574431,0.017256435,0.008399149,-0.010689827
2023/4/21 14:56,2761,-0.034623936,-0.051623583,0.1267538,0.22122277,1.1937051,9.731214,0.039302167,0.047974363,0.87439936,0.48122716,0.20413768,1.1463116,9.829416,0.08567133,0.057266932,-0.007024744
2023/4/21 14:56,2800,0.06240292,-0.012006283,-0.093530655,0.1963733,1.2402561,9.725924,0.039329365,0.050686393,0.87440044,0.4809449,0.2161018,1.2204891,9.534949,0.12965234,0.08047912,-0.008246438
2023/4/21 14:56,2840,-0.042583585,0.018598557,0.063975334,0.17685041,1.2561343,9.72426,0.038868655,0.051864654,0.8741718,0.48127228,0.18738793,1.2623636,9.833006,-0.03283304,0.016951011,0.013744064
2023/4/21 14:56,2881,0.061400905,-0.049492598,0.09035587,0.17859875,1.2562436,9.724214,0.03911783,0.051699705,0.87260246,0.48410937,0.17303099,1.2061322,9.727721,0.044133715,0.004734066,0.014965758
2023/4/21 14:56,2920,-0.08701928,-0.050990224,-0.05151558,0.1858234,1.2656405,9.722859,0.039649792,0.051961444,0.8728062,0.48367065,0.16824535,1.2228819,9.5517,0.022143213,-0.036803547,0.029626092
2023/4/21 14:56,2960,-0.006456494,0.028152466,-0.0843811,0.19525857,1.2647122,9.722796,0.040008053,0.05171771,0.8731832,0.48298627,0.12861422,1.2468102,9.586395,-0.04382829,-0.007482879,0.022295926
2023/4/21 14:56,3001,-0.03642644,0.007131338,-0.005353928,0.19322234,1.2689581,9.722283,0.039965983,0.052002106,0.87369674,0.48202956,0.21490538,1.2480066,9.589985,0.084449634,0.030389652,0.05650337
2023/4/21 14:56,3040,0.079686984,-0.019916534,-0.4052477,0.17632739,1.3016503,9.718282,0.039965086,0.05392885,0.87410814,0.48107114,0.2484049,1.2659527,9.179466,0.014813046,0.0645971,0.029626092
2023/4/21 14:56,3080,-0.11228721,0.006840825,-0.033290863,0.16320561,1.2741439,9.722156,0.038675174,0.053030718,0.87438446,0.4807742,0.026919255,1.240828,9.900154,-0.13912046,-0.006261184,0.02351762
2023/4/21 14:56,3121,0.12634942,-0.06576514,0.22418785,0.16600749,1.2507228,9.725149,0.038153518,0.05195879,0.87507635,0.47967276,0.27352953,1.1989537,9.833006,0.055128966,0.03771982,0.027182704
2023/4/21 14:56,3160,0.056551173,0.014654994,0.084866524,0.16256216,1.2628803,9.723637,0.038265493,0.052614667,0.87534976,0.47909316,0.23045874,1.2792628,9.636794,0.017256435,0.007177455,0.030847786
2023/4/21 14:56,3200,0.087946266,0.04197073,0.015130043,0.16227852,1.269657,9.722757,0.03843408,0.052916247,0.8752015,0.47931716,0.21969102,1.2924234,9.68465,0.033138465,0.012064233,0.036956258
2023/4/21 14:56,3241,0.07008627,-0.017280936,-0.013683319,0.15914765,1.2918184,9.71989,0.038806442,0.054014716,0.8754397,0.4787293,0.2364408,1.2731313,9.580413,0.07101099,0.03771982,0.027182704
2023/4/21 14:56,3280,0.033693254,-0.034898758,-0.09003067,0.15193054,1.2920438,9.719976,0.038467377,0.054216497,0.87562644,0.47839227,0.15987046,1.2312568,9.600752,-0.058488626,0.0193944,0.01007898
2023/4/21 14:56,3320,0.07595013,-0.018449783,-0.084059715,0.14071412,1.2779757,9.722005,0.037620205,0.053855956,0.87565047,0.47845644,0.1742274,1.2360425,9.490683,-0.029167956,0.052380152,-0.015576605
2023/4/21 14:56,3360,-0.05003892,0.02155745,-0.09025383,0.12786737,1.246762,9.7262335,0.03629121,0.052754592,0.8756027,0.478769,0.116650105,1.255185,9.618848,-0.14278555,-0.014813046,-0.020463383
2023/4/21 14:56,3401,0.14334686,0.075074315,0.10343075,0.13682395,1.2165045,9.729942,0.03598304,0.051148966,0.87535447,0.47941998,0.22926232,1.343869,9.736096,0.012369657,0.004734066,-0.03268033
2023/4/21 14:56,3440,-0.019839361,-0.062781334,-0.09932041,0.14745581,1.2219008,9.729112,0.036648028,0.05109123,0.8748156,0.48035857,0.1538884,1.1439188,9.500254,-0.034054734,-0.06490252,-0.021685077
2023/4/21 14:56,3480,0.025651306,0.06419611,-0.070363045,0.16696692,1.1917387,9.732536,0.03679506,0.049242914,0.87471473,0.4807238,0.19935204,1.2456137,9.633204,-0.10124794,-0.019699825,-9.16E-04
2023/4/21 14:56,3521,-0.016438484,-0.010367036,0.03855896,0.17198111,1.174431,9.734553,0.036582608,0.048349205,0.87485147,0.4805819,0.18020946,1.1534901,9.724133,0.009926268,-0.002596101,0.013744064
2023/4/21 14:56,3560,0.012311563,-0.03234756,-0.03062439,0.17368294,1.1833189,9.733446,0.036899995,0.048690304,0.87461376,0.4809557,0.20413768,1.1463116,9.612717,0.041690327,0.023059484,0.018630842
2023/4/21 14:56,3600,0.06057909,0.034339666,-0.06581211,0.15824983,1.1895794,9.732945,0.036387444,0.049333572,0.87437177,0.48136905,0.20653051,1.1786147,9.544521,-0.045049984,0.042606596,-0.002137966
2023/4/21 14:56,3641,-0.07004747,-0.005672336,0.010875702,0.14997503,1.1656091,9.735977,0.035305984,0.048304167,0.87448955,0.48134008,0.048454657,1.1379367,9.67149,-0.078035735,-0.007482879,0.01007898
2023/4/21 14:56,3680,0.020025045,-0.003178239,0.04236698,0.14299162,1.144062,9.738638,0.034575306,0.04766783,0.87452906,0.48138475,0.18260227,1.1522937,9.697811,-0.02183779,0.029167956,0.005192202
2023/4/21 14:56,3720,0.0298419,0.007558703,0.015389442,0.13546659,1.136005,9.739689,0.033943743,0.04747737,0.87516594,0.48028985,0.16106687,1.161865,9.702597,-0.035276428,0.007177455,0.006413896
2023/4/21 14:56,3760,-0.036447465,0.038172007,0.017551422,0.13892671,1.1182449,9.741694,0.033557918,0.046751197,0.8766215,0.47772682,0.06281159,1.1522937,9.725328,-0.049936764,-0.014813046,0.027182704
2023/4/21 14:56,3801,-0.011517406,0.04415214,0.04766178,0.1378472,1.1224257,9.741229,0.033593528,0.04697889,0.8767997,0.47737488,0.12622139,1.1726327,9.672687,0.046577103,0.020616096,0.03939965
2023/4/21 14:56,3840,-0.046046093,-0.015679479,-0.07305908,0.13109283,1.1278944,9.740691,0.033412207,0.047398504,0.8769122,0.47713947,0.109471634,1.1104193,9.57802,-0.035276428,0.02183779,0.044286426
2023/4/21 14:56,3880,0.05865422,9.24E-04,0.019704819,0.13112004,1.1110066,9.74263,0.032975323,0.046655077,0.87720364,0.4767072,0.18260227,1.1343474,9.712168,-0.038941514,0.031611346,0.032069482
2023/4/21 14:56,3921,0.046764024,0.06012571,0.20589924,0.11521648,1.1117876,9.742743,0.032250132,0.047098704,0.87751496,0.4761398,0.19097716,1.1594721,9.873684,0.06001574,0.063375406,0.04550812
2023/4/21 14:56,3960,0.04897453,0.009547949,-0.025803566,0.10265585,1.1481403,9.738667,0.03253382,0.049068913,0.87782395,0.47535133,0.1274178,1.1654541,9.598359,0.08322794,0.027946262,0.036956258
2023/4/21 14:56,4000,0.006400608,-0.005962133,-0.060308456,0.09916591,1.1595337,9.737353,0.03264938,0.04967103,0.87785083,0.4752313,0.1431207,1.1499008,9.605537,-0.026724568,-0.006261184,0.005192202
2023/4/21 14:56,4040,0.031928934,0.004125953,-0.05196476,0.10243671,1.1498446,9.738468,0.032568794,0.049148917,0.87778854,0.47540608,0.11545369,1.1152049,9.606734,-0.012064233,0.001068983,-0.00335966
2023/4/21 14:56,4081,0.015820757,-6.70E-04,-0.13948536,0.10971109,1.1380153,9.739778,0.03262906,0.04842401,0.87759805,0.47582784,0.1538884,1.1499008,9.532557,-0.060932014,-0.04046863,0.014965758
2023/4/21 14:56,4120,0.015369609,0.014024615,0.03570366,0.1265243,1.1217493,9.741461,0.032980673,0.047286466,0.87769496,0.47573924,0.13579269,1.1152049,9.629616,0.008704574,-0.011147963,0.029626092
2023/4/21 14:56,4160,0.02245617,0.021166801,-0.1448164,0.12490055,1.129279,9.740611,0.0330605,0.047686778,0.87798744,0.47515365,0.18020946,1.1558828,9.497861,-0.024281178,-0.00503949,0.03451287
2023/4/21 14:56,4200,-0.01633282,-0.019292355,-0.026974678,0.14256516,1.0937431,9.744424,0.033129033,0.04624435,0.8781119,0.4750615,0.08673982,1.0338489,9.634401,-0.12079505,-0.035581853,-0.010689827
2023/4/21 14:56,4241,0.014796585,-0.008580208,0.20182705,0.14355843,1.0567186,9.748493,0.032114808,0.043975078,0.8783099,0.4749806,0.17901304,1.039831,9.92169,-0.051158458,0.008399149,0.018630842
2023/4/21 14:56,4280,0.06325388,0.011564851,0.24952221,0.14633949,1.0459381,9.749615,0.031981867,0.04341846,0.87828124,0.47509372,0.23285155,1.0517951,9.872487,-0.004734066,-0.025808297,-0.024128467
2023/4/21 14:56,4320,0.002771989,0.040537953,-0.004551888,0.1613332,1.0496422,9.74898,0.032810982,0.04317177,0.8775487,0.47641155,0.14551352,1.0840982,9.647562,0.022143213,-0.019699825,-0.014354911
2023/4/21 14:56,4361,0.001557857,0.049413323,-0.07425976,0.16681504,1.066858,9.747019,0.033495516,0.043959092,0.87851036,0.4745158,0.18738793,1.0960623,9.513414,0.039246935,-0.022143213,0.022295926
2023/4/21 14:56,4400,0.028385699,0.032702208,-0.18564034,0.17443734,1.0745283,9.746043,0.033904243,0.04405251,0.87860173,0.47430888,0.19815563,1.080509,9.485897,-0.005955761,0.008399149,0.012522369
2023/4/21 14:56,4440,-0.001476169,-0.012047291,0.041297913,0.16597618,1.0796562,9.745624,0.033660557,0.044479765,0.87846684,0.47453606,0.20413768,1.0446166,9.670294,0.039246935,0.015729317,0.012522369
2023/4/21 14:56,4480,0.018846348,-0.005067229,-0.14687252,0.16732126,1.0860043,9.744896,0.03384718,0.044754732,0.87875265,0.47396752,0.17303099,1.0649556,9.495468,-0.02183779,0.013285928,-0.00335966
2023/4/21 14:56,4521,0.026262537,0.01098609,0.09455204,0.15741423,1.0722712,9.746582,0.0330683,0.0443752,0.87878263,0.47400254,0.16585252,1.0661521,9.742078,-0.030389652,0.030389652,0.008857286
2023/4/21 14:56,4560,0.019939393,0.002021909,0.16145706,0.15216126,1.0645641,9.747509,0.032610223,0.04418052,0.87917227,0.47332942,0.17662022,1.0434202,9.810274,-0.009620844,-0.012369657,-0.004581355
2023/4/21 14:56,4600,0.022007316,-0.003807783,0.057182312,0.15296222,1.0689181,9.74702,0.03277734,0.04433875,0.8788911,0.473825,0.15149559,1.0505987,9.672687,0.04291202,0.029167956,0.001527118
2023/4/21 14:56,4641,0.026092753,0.007876992,-0.0519619,0.1468855,1.0824658,9.745619,0.0327906,0.045089755,0.87895757,0.47362986,0.18260227,1.0541879,9.610324,0.011147963,-0.002596101,0.002748813
2023/4/21 14:56,4680,0.03283848,-0.039420128,-0.003741264,0.15473615,1.0911074,9.744533,0.033388924,0.045301873,0.87891847,0.47364038,0.17542382,1.0517951,9.640384,0.047798797,-0.006261184,0.001527118
2023/4/21 14:56,4720,0.011181176,0.012969136,-0.1665554,0.15434334,1.1047922,9.742997,0.033655103,0.045964316,0.8793887,0.472684,0.1381855,1.1092229,9.477522,0.023364907,0.023059484,-0.005803049
2023/4/21 14:56,4760,0.051052377,-0.031234026,0.055867195,0.1479296,1.117426,9.741656,0.03369024,0.04667701,0.8791861,0.47298837,0.14551352,1.0876875,9.655936,0.050242186,0.013285928,-0.029015245
2023/4/21 14:56,4800,-0.056605473,-0.019557238,-0.11400032,0.1400404,1.1277739,9.740581,0.033548143,0.047361944,0.87954706,0.4722588,0.10229317,1.0757233,9.545717,0.006261184,0.003512372,0.013744064
2023/4/21 14:56,4841,0.042463467,0.06032765,0.043935776,0.14275764,1.131796,9.740074,0.033780854,0.04746876,0.87940794,0.47249046,0.15867405,1.1953645,9.676275,0.006261184,-0.011147963,-0.031458635
2023/4/21 14:56,4880,-0.033906803,0.050306797,0.11834526,0.14062601,1.1413213,9.738994,0.033930056,0.047940306,0.8792464,0.4727327,0.13339986,1.1834004,9.799506,0.039246935,0.014507622,-0.005803049
2023/4/21 14:56,4920,-0.005064473,0.020592213,-0.04868698,0.13999708,1.1605036,9.736735,0.034337554,0.04876198,0.87887686,0.47330612,0.1431207,1.1738291,9.519396,0.018478129,-0.016034741,0.018630842
2023/4/21 14:56,4960,-0.011056483,-0.004958272,0.005483627,0.1471486,1.1685742,9.735664,0.034916844,0.048990414,0.87886983,0.47325322,0.12143575,1.1439188,9.65833,0.033138465,-0.009926268,0.001527118
2023/4/21 14:56,5001,-0.05757296,-0.022916436,-0.1218977,0.13857608,1.1763283,9.734857,0.03474968,0.049526818,0.87856615,0.47377318,0.061615184,1.141526,9.524182,-0.016951011,0.05482354,0.03451287
2023/4/21 14:56,5040,0.045166746,-0.019394398,0.09125519,0.12910287,1.1678631,9.736006,0.034038365,0.049426187,0.87896067,0.47310314,0.17183457,1.1247762,9.745667,0.006261184,-0.013591352,0.013744064
2023/4/21 14:56,5080,0.02884525,-0.011708975,0.05419731,0.14191066,1.1711605,9.735432,0.034754407,0.0492266,0.87876564,0.47343403,0.18379869,1.1630614,9.726525,0.012369657,-0.018478129,3.05E-04
2023/4/21 14:56,5120,-0.03284417,0.020905137,0.037442207,0.14367095,1.1839848,9.733854,0.035183433,0.049735952,0.8783706,0.47408187,0.11066805,1.1594721,9.664311,0.044133715,0.009620844,0.01007898
2023/4/21 14:56,5161,-0.030859351,0.018931985,0.044682503,0.14286074,1.1930962,9.732754,0.035332065,0.050192654,0.87869513,0.47342074,0.17662022,1.1953645,9.738489,0.020921519,-0.024586603,0.019852536
2023/4/21 14:56,5200,0.002921581,0.034069657,-0.05177307,0.15761362,1.2200884,9.729179,0.03668561,0.051030196,0.8783108,0.47394112,0.16226329,1.2444173,9.554092,0.088114716,-0.028251685,0.012522369
2023/4/21 14:56,5240,-0.01755862,0.019042492,-0.14589596,0.16518763,1.2349216,9.727181,0.037398115,0.051508557,0.8781719,0.47409108,0.14670993,1.2372389,9.500254,-0.020616096,-0.027029991,0.025961008
2023/4/21 14:56,5280,0.03600627,0.048451662,0.04402256,0.17643055,1.2280017,9.727861,0.037714392,0.05093893,0.87837845,0.47374484,0.2364408,1.2312568,9.740882,0.022143213,-0.022143213,0.029626092
2023/4/21 14:56,5321,-0.00692369,-0.031903148,-0.091620445,0.18895938,1.2426575,9.725764,0.0386661,0.051273607,0.8780463,0.47424746,0.17901304,1.208525,9.501451,0.023364907,-0.023364907,0.027182704
2023/4/21 14:56,5360,0.014098555,0.023918629,-0.031216621,0.19747156,1.2360138,9.726441,0.038822394,0.050816637,0.8786619,0.47314247,0.17183457,1.2444173,9.645169,-0.0413849,-0.006261184,0.012522369
2023/4/21 14:56,5400,0.014976189,0.007147789,0.030006409,0.20430046,1.2393626,9.725875,0.039108325,0.05075026,0.8787498,0.4729627,0.22806591,1.2468102,9.61152,0.041690327,-0.014813046,0.03451287
2023/4/21 14:56,5440,0.03917247,0.048396707,-0.026485443,0.2149606,1.2414415,9.725379,0.039757106,0.050626412,0.8784936,0.47339764,0.25079772,1.2948161,9.618848,-0.042606596,-0.011147963,0.003970507
2023/4/21 14:56,5481,0.05561395,0.029801488,0.14972305,0.21509886,1.2368081,9.725966,0.03962954,0.050430328,0.8787028,0.47304082,0.2484049,1.2432209,9.7863455,0.024586603,0.023059484,0.02107423
2023/4/21 14:56,5520,-0.001214355,0.008753657,0.017878532,0.21674578,1.2536544,9.723773,0.040108472,0.0511554,0.8787034,0.47292155,0.19456638,1.2731313,9.620045,0.046577103,-0.007482879,0.028404398
2023/4/21 14:56,5560,-0.005501226,0.07147002,-0.17942905,0.20973499,1.2684895,9.722003,0.040128686,0.052014578,0.87889445,0.47247085,0.17183457,1.343869,9.404541,-0.003512372,0.047493376,0.027182704
2023/4/21 14:56,5600,0.03968337,-0.010755301,0.05247116,0.18068491,1.2528944,9.724608,0.03840208,0.05204112,0.87931,0.4718378,0.21849462,1.2073286,9.7863455,-0.049936764,0.08414421,0.036956258
2023/4/21 14:56,5641,0.027289122,-0.013922215,0.086330414,0.16519597,1.250426,9.725202,0.037656687,0.052160706,0.8796202,0.47130617,0.18140587,1.2396317,9.653543,0.035581853,0.027946262,0.014965758
2023/4/21 14:56,5680,0.021343514,0.028344035,0.08211517,0.16091084,1.2487231,9.7254925,0.037359796,0.052365858,0.87978405,0.4710012,0.20174485,1.249203,9.740882,-0.046271678,0.002290677,0.006413896
2023/4/21 14:56,5721,0.034869373,-0.00163424,0.22084522,0.16337644,1.238247,9.726789,0.037201617,0.05184385,0.87995297,0.47075582,0.19456638,1.2372389,9.831809,0.003817795,-0.003817795,0.006413896
2023/4/21 14:56,5760,0.018476352,0.007313848,0.02705574,0.1670837,1.2401943,9.726479,0.03740605,0.051849715,0.880035,0.47058567,0.18379869,1.2312568,9.660723,0.002596101,-0.006261184,-0.005803049
2023/4/21 14:56,5800,0.079281956,0.041062236,0.002964973,0.17033799,1.2459475,9.725687,0.037728198,0.05200535,0.87968975,0.47118783,0.24361925,1.2744771,9.634401,0.027029991,0.003512372,-0.013133216
2023/4/21 14:56,5840,0.010262504,-0.010249257,-0.124650955,0.1748527,1.2555747,9.724369,0.03821737,0.052285004,0.8790451,0.4723191,0.18260227,1.249203,9.524182,-0.001068983,-0.00503949,-0.010689827
2023/4/21 14:56,5880,0.06205289,0.003525257,-0.027029037,0.16917711,1.2615427,9.723697,0.038128443,0.05268466,0.8789792,0.47240463,0.25079772,1.261167,9.57802,0.04535541,0.038941514,-0.02535016
2023/4/21 14:56,5921,-0.047600657,0.032780766,-0.017903328,0.15790944,1.2706634,9.722698,0.037898947,0.05332928,0.8784601,0.47331545,0.116650105,1.2804592,9.722936,-0.024281178,0.002290677,-0.019241689
2023/4/21 14:56,5960,0.02788937,-0.016656399,0.09794521,0.1631577,1.2623299,9.723698,0.037931636,0.052719306,0.87887204,0.47261593,0.18978074,1.2168999,9.760024,-0.020616096,-0.025808297,-0.02779355
2023/4/21 14:56,6000,0.017062515,-0.018950105,0.028708458,0.16492271,1.2620745,9.7237015,0.038001824,0.05277409,0.8785136,0.47327018,0.21251257,1.261167,9.652348,0.022143213,0.001068983,-0.008246438
2023/4/21 14:56,6040,0.016903266,0.06607604,-0.0738039,0.17356472,1.2659425,9.723047,0.038505245,0.052724723,0.8783166,0.47360054,0.17781663,1.3115659,9.582806,-0.03771982,-0.033138465,-0.037567105
2023/4/21 14:56,6081,0.045044065,8.23E-04,0.037956238,0.18320678,1.253301,9.724508,0.038671695,0.051890034,0.8779767,0.4743088,0.21251257,1.2264712,9.685847,-0.005955761,-0.003817795,-0.013133216
2023/4/21 14:56,6120,8.62E-04,-0.015952945,-0.036258698,0.18610254,1.261694,9.723368,0.039065503,0.052154623,0.87741715,0.47528198,0.17781663,1.2444173,9.59477,0.012369657,-0.027029991,-0.010689827
2023/4/21 14:56,6160,0.02189,-0.004298449,0.0602417,0.19632591,1.2466489,9.725107,0.039213087,0.051184643,0.87693435,0.47626525,0.21969102,1.2192926,9.755239,-0.058488626,-0.017256435,-0.02779355
2023/4/21 14:56,6201,0.020602643,-0.01869452,0.07016468,0.19504088,1.2401737,9.725961,0.039088257,0.05093987,0.8762965,0.4774742,0.20653051,1.2240783,9.697811,0.03191677,0.007177455,-0.015576605
2023/4/21 14:56,6240,0.008112505,0.041190505,-0.119582176,0.19081728,1.2484684,9.724983,0.0390416,0.051377013,0.87664086,0.47679862,0.21969102,1.2671491,9.567253,-0.023059484,0.029167956,-0.03268033
2023/4/21 14:56,6280,0.015236884,0.045072794,-0.022058487,0.17646249,1.2437665,9.725857,0.038321726,0.051485468,0.8762894,0.4774909,0.18738793,1.2888341,9.623633,-0.0193944,0.030389652,-0.016798299
2023/4/21 14:56,6320,0.04280515,-0.035594344,-0.018819809,0.17768627,1.2271135,9.72795,0.037945744,0.050722003,0.8765411,0.47714055,0.23404796,1.1786147,9.693026,-0.06826218,-0.008704574,-0.007024744
2023/4/21 14:56,6360,0.045722812,-0.037220836,0.13025951,0.17825468,1.2032682,9.730918,0.037386097,0.04963429,0.8766065,0.47717896,0.22926232,1.1522937,9.764811,-0.03771982,-1.53E-04,-0.018019995
2023/4/21 14:56,6401,0.029056057,-0.019369125,0.003393173,0.18532465,1.1896346,9.732461,0.037433624,0.048798367,0.8760074,0.4783603,0.21131615,1.1714362,9.652348,-0.015729317,-0.011147963,-0.011911522
2023/4/21 14:56,6440,0.06291233,-0.058199763,0.046772003,0.18857527,1.1821722,9.733309,0.037340343,0.048426017,0.87657434,0.47736576,0.22088744,1.1056336,9.7348995,-0.001068983,0.007177455,-0.010689827
2023/4/21 14:56,6481,-0.005989045,-0.018297791,0.02748394,0.18633735,1.1829358,9.733258,0.037288327,0.048507802,0.87651217,0.47747567,0.18020946,1.1666505,9.682258,0.006261184,-0.012369657,-0.010689827
2023/4/21 14:56,6520,0.027395502,-0.006785035,-0.033013344,0.19414686,1.1788657,9.733601,0.037548237,0.04811079,0.87619364,0.47807968,0.23045874,1.1738291,9.628419,-0.016951011,-0.011147963,-0.014354911
2023/4/21 14:56,6560,-0.013010055,-0.004442692,-0.021119118,0.1914911,1.17742,9.733829,0.03732179,0.048166357,0.87691057,0.47677562,0.15628123,1.1666505,9.62483,0.001374406,0.02183779,-0.013133216
2023/4/21 14:56,6601,-0.03840822,-0.03509319,-0.066124916,0.18401648,1.1745574,9.734318,0.036891185,0.0482387,0.8771672,0.47632942,0.14431712,1.1666505,9.617502,-0.018172706,0.005955761,0.012522369
2023/4/21 14:56,6640,0.016439065,0.02420187,0.01192379,0.18537228,1.1631604,9.735661,0.03671852,0.04788226,0.8772105,0.47629905,0.23285155,1.1822039,9.709775,-0.046271678,-0.00503949,-0.007024744
2023/4/21 14:56,6681,0.029379651,0.05859053,0.14826012,0.18732844,1.1515758,9.737,0.036464367,0.047133006,0.87735665,0.47612414,0.20772691,1.1594721,9.771989,-0.008399149,0.005955761,0.005192202
2023/4/21 14:56,6720,-0.025314853,0.001055598,0.008944511,0.18270198,1.1526604,9.736959,0.036273114,0.047317408,0.8770859,0.4766189,0.19336998,1.1786147,9.6834545,0.003817795,0.023059484,0.029626092
2023/4/21 14:56,6761,0.016294628,0.019675493,0.002048492,0.17876366,1.1555371,9.736691,0.036272697,0.04744963,0.8765568,0.47757828,0.22447668,1.1379367,9.666704,1.53E-04,-0.001374406,0.006413896
2023/4/21 14:56,6800,0.017948851,-0.02991867,-0.003409386,0.18016538,1.144959,9.737916,0.036043096,0.04696159,0.8767447,0.47729892,0.20772691,1.100848,9.7145605,-0.031611346,0.018172706,0.012522369
2023/4/21 14:56,6840,0.058945626,-0.008272767,0.018590927,0.17860863,1.1427151,9.738208,0.035928436,0.04694748,0.87678534,0.4772343,0.22926232,1.1235797,9.652348,0.020921519,0.014507622,-0.00335966
2023/4/21 14:56,6880,-0.001734614,-9.64E-04,0.01647091,0.1722322,1.1421102,9.738393,0.035605922,0.047035526,0.8768701,0.47709405,0.15628123,1.141526,9.712168,-0.020616096,0.0193944,-0.005803049
2023/4/21 14:56,6920,0.004854068,-0.01769197,-0.018184662,0.16497698,1.1389211,9.738893,0.035190847,0.04707738,0.87699556,0.47689,0.15747765,1.1080264,9.640384,1.53E-04,0.012064233,3.05E-04
2023/4/21 14:56,6961,0.030337632,-0.002431035,0.05287361,0.16405614,1.1382221,9.73899,0.03513049,0.04706978,0.87701696,0.47685584,0.19097716,1.1510973,9.744472,0.016034741,0.018172706,-0.013133216
2023/4/21 14:56,7000,0.08534615,-0.05947268,-0.09873009,0.1532638,1.1558443,9.73709,0.03509638,0.048112635,0.8767908,0.47717002,0.21370897,1.0888839,9.517003,0.046577103,0.040163208,-0.013133216
2023/4/21 14:56,7040,-0.02175124,0.009653926,-0.18792629,0.14561486,1.1536868,9.737464,0.034680773,0.04821612,0.87699157,0.47682095,0.1274178,1.1439188,9.503843,-0.049936764,0.005955761,0.001527118
2023/4/21 14:56,7080,0.02471672,-0.057290316,0.08046436,0.14463046,1.1385398,9.739261,0.034297273,0.047535352,0.8767129,0.47742912,0.1742274,1.0673485,9.722936,-0.004734066,-0.007482879,-0.009468133
2023/4/21 14:56,7120,-0.015435055,-0.007965446,-0.07352829,0.14351,1.1373647,9.739414,0.034201704,0.047533147,0.8764675,0.47788653,0.14551352,1.1606685,9.589985,1.53E-04,0.02183779,0.003970507
2023/4/21 14:56,7161,0.028302044,0.018593788,-0.0393095,0.14047143,1.1397492,9.73918,0.034120053,0.0477058,0.876914,0.4770553,0.11545369,1.1522937,9.612717,-0.0193944,0.002290677,-0.02535016
2023/4/21 14:56,7200,0.011181518,-0.009252071,-0.04824257,0.14026807,1.1294848,9.740378,0.033906482,0.047215007,0.8764646,0.47794446,0.17183457,1.1403296,9.657133,-0.003512372,0.007177455,-0.005803049
2023/4/21 14:56,7240,0.07255642,0.019817114,0.075021744,0.13570952,1.1321287,9.740136,0.0338219,0.047406152,0.87590474,0.47895685,0.18140587,1.1630614,9.700204,-0.018172706,0.007177455,-0.029015245
2023/4/21 14:56,7281,0.003301129,0.044268847,0.03537464,0.13968939,1.1316391,9.740136,0.033989258,0.047285967,0.8758945,0.47897562,0.11066805,1.1917752,9.687043,0.028251685,-0.012369657,-0.020463383
2023/4/21 14:56,7320,-0.056849003,0.04691124,-0.100764275,0.14001782,1.1485176,9.738156,0.03449935,0.04797922,0.8750503,0.48041096,0.08075777,1.1857932,9.555288,1.53E-04,0.002290677,0.018630842
2023/4/21 14:56,7361,-0.042022347,0.004579783,-0.01222229,0.12992895,1.1480516,9.738351,0.034000482,0.048231184,0.87540865,0.47976807,0.098703936,1.1522937,9.621241,0.013591352,0.034054734,0.013744064
2023/4/21 14:56,7400,-0.062210985,-0.006934285,-0.026697159,0.12073928,1.1539053,9.737778,0.033866793,0.04862679,0.87407434,0.48216438,0.081954174,1.133151,9.606734,1.53E-04,-0.008704574,0.028404398
2023/4/21 14:56,7440,0.059326336,0.044140577,-0.08105469,0.13043147,1.1470481,9.738463,0.03412967,0.048080746,0.8740978,0.48215804,0.21011974,1.1439188,9.57802,-0.030389652,-0.020921519,0.01007898
2023/4/21 14:56,7480,0.11779244,0.026139379,0.08596516,0.14268522,1.1426954,9.738802,0.03454673,0.0476003,0.87434125,0.4817345,0.27711877,1.1307583,9.691829,0.017256435,-0.007482879,0.005192202
2023/4/21 14:56,7521,0.14737312,0.019775033,-0.14790821,0.14852612,1.1586115,9.736835,0.035228238,0.048151612,0.8740353,0.48218533,0.27711877,1.1750255,9.538539,0.027029991,0.010842538,-0.013133216
2023/4/21 14:56,7560,0.04195717,-0.022143722,-0.061523438,0.15413406,1.1611447,9.736446,0.0355002,0.048157778,0.8744439,0.48142338,0.15987046,1.0829018,9.635597,-0.0193944,0.02183779,-0.015576605
2023/4/21 14:56,7600,-0.011581808,0.003606916,0.10185242,0.13620177,1.1563483,9.737283,0.034494378,0.048444204,0.8753022,0.47990558,0.12263216,1.1798111,9.706186,0.014813046,0.040163208,-0.007024744
2023/4/21 14:56,7640,-0.011913881,0.06575143,-0.003829956,0.129862,1.1658823,9.736234,0.034496788,0.04899209,0.8747757,0.4808089,0.089132644,1.249203,9.61152,-0.001068983,-0.012369657,-0.013133216
2023/4/21 14:56,7681,-0.0366053,0.006392956,0.088526726,0.13179755,1.1608838,9.736805,0.03454395,0.04871262,0.87422276,0.4818385,0.096311115,1.1558828,9.7348995,-0.014507622,-0.002596101,0.003970507
2023/4/21 14:56,7720,-0.001208961,-0.041175127,0.094698906,0.1310252,1.159219,9.737014,0.03448793,0.048590805,0.8737659,0.48268285,0.15747765,1.0876875,9.740882,0.009926268,-0.006261184,0.012522369
2023/4/21 14:56,7760,-0.07316573,-0.04971981,-0.005456924,0.13714208,1.1595196,9.736893,0.034720395,0.048488118,0.8742461,0.48180607,0.06520442,1.0888839,9.586395,0.011147963,-0.019699825,-0.008246438
2023/4/21 14:56,7801,0.01297541,-0.024108648,-0.05512047,0.14147612,1.1583488,9.736971,0.0348667,0.048342247,0.8744335,0.48146996,0.17662022,1.0948659,9.603145,1.53E-04,-0.013591352,0.011300675
2023/4/21 14:56,7840,0.02062571,0.007334232,-0.024969101,0.14771035,1.1488705,9.738001,0.03490132,0.04777055,0.8745563,0.48130155,0.13220344,1.1786147,9.628419,-0.038941514,-0.00503949,-0.010689827
2023/4/21 14:56,7880,-0.058943585,0.008297205,0.091192245,0.14581746,1.1499522,9.737902,0.03478715,0.047906544,0.8751183,0.4802736,0.10229317,1.135544,9.7348995,0.046577103,-1.53E-04,0.028404398
2023/4/21 14:56,7921,-0.010441914,0.027534008,-0.15396881,0.1500741,1.1641523,9.73615,0.03531559,0.048449174,0.8752047,0.48002312,0.15508482,1.1606685,9.524182,-0.010842538,-0.029473381,0.02351762
2023/4/21 14:56,7960,0.072189614,0.026720166,0.083067894,0.16215165,1.1567447,9.736839,0.035638478,0.047846332,0.8755753,0.47938344,0.22567308,1.167847,9.722936,-0.004734066,-1.53E-04,0.025961008
2023/4/21 14:56,8000,0.031417087,-0.004157186,0.085268974,0.16453467,1.162385,9.736128,0.035979204,0.04797037,0.8746094,0.4811057,0.1957628,1.161865,9.743275,0.016034741,-0.019699825,0.03451287
2023/4/21 14:56,8041,0.012886867,0.06998575,0.028284073,0.18137279,1.168218,9.73513,0.03688503,0.04781216,0.8745094,0.48123464,0.20892332,1.2216855,9.675079,-0.001068983,-0.022143213,0.036956258
2023/4/21 14:56,8080,0.014477834,0.012368798,0.028999329,0.1797314,1.175984,9.734225,0.036927555,0.048259582,0.87524766,0.4798426,0.18020946,1.2001501,9.677472,0.04535541,0.030389652,0.03939965
2023/4/21 14:56,8120,0.03233242,0.023620725,-0.06656456,0.1774529,1.1926255,9.732243,0.037192725,0.04909624,0.87562627,0.4790458,0.19935204,1.1798111,9.532557,0.009926268,-0.016034741,0.02351762
2023/4/21 14:56,8161,-0.00528191,-0.028193355,-0.07014561,0.18415065,1.1854931,9.73299,0.03722096,0.048685264,0.87658995,0.47732,0.1849951,1.141526,9.598359,-0.035276428,0.004734066,0.02107423
2023/4/21 14:56,8200,0.045798436,-0.055449605,-0.010409355,0.18277733,1.1709886,9.734772,0.036734,0.048118938,0.87731737,0.47607714,0.2364408,1.092473,9.660723,-0.024281178,0.025502874,0.013744064
2023/4/21 14:56,8240,0.001068175,-0.03046608,0.006037712,0.17712659,1.1677818,9.735261,0.03645299,0.04807321,0.8768204,0.47701794,0.17901304,1.121187,9.633204,0.017256435,0.005955761,0.011300675
2023/4/21 14:56,8281,0.043703556,0.044697046,-0.05755043,0.18127427,1.1690297,9.735034,0.036678255,0.048021756,0.87673104,0.4771701,0.20294127,1.2121142,9.582806,-0.012064233,-0.007482879,0.002748813
2023/4/21 14:56,8320,0.08345577,0.06309652,-0.018881798,0.1828513,1.1747284,9.734319,0.03686258,0.04825986,0.87697446,0.4766843,0.25438696,1.2168999,9.572039,0.011147963,-0.006261184,-0.005803049
2023/4/21 14:56,8360,0.007457882,0.055142164,-0.023282051,0.19016095,1.1711193,9.734614,0.03706786,0.047945864,0.8773234,0.4760576,0.20413768,1.1965609,9.609127,-0.03771982,0.005955761,0.027182704
2023/4/21 14:56,8400,0.12504359,0.007391691,0.10149002,0.18775336,1.1671288,9.735139,0.03685207,0.047832422,0.8774347,0.47588068,0.32736805,1.1307583,9.699007,0.008704574,0.018172706,0.008857286
2023/4/21 14:56,8441,0.09688692,0.009928823,0.066355705,0.19089988,1.1670859,9.735084,0.037000816,0.04774738,0.877349,0.47603548,0.27233312,1.1522937,9.700204,0.014813046,0.02183779,-0.018019995
2023/4/21 14:56,8480,0.024462506,-0.055510283,0.021144867,0.18721338,1.1735156,9.734383,0.03700557,0.048116736,0.87720495,0.47626346,0.1957628,1.0793126,9.643972,0.017256435,0.009620844,0.011300675
2023/4/21 14:56,8520,0.01256153,-0.102246046,0.050335884,0.18410087,1.1734132,9.734454,0.03689084,0.048166823,0.876934,0.47676593,0.18858433,1.0553843,9.691829,0.012369657,0.007177455,-0.008246438
2023/4/21 14:56,8561,-0.005464986,-0.043019176,0.08006573,0.18590902,1.173577,9.734401,0.036970206,0.04813459,0.87699044,0.47665924,0.18379869,1.1343474,9.75165,0.029473381,-0.007482879,-0.018019995
2023/4/21 14:56,8600,0.006690428,-0.033638954,0.10754585,0.18803139,1.1875945,9.732659,0.03746206,0.04853688,0.8758589,0.47865644,0.18260227,1.1570793,9.775578,0.05390727,-0.003817795,-0.010689827
2023/4/21 14:56,8640,-0.02105385,0.002727985,-0.10900211,0.18704918,1.2040848,9.730652,0.03791673,0.04952131,0.8758679,0.47850323,0.1634597,1.2420245,9.505039,0.04291202,0.004734066,-0.008246438
2023/4/21 14:56,8681,-0.031191126,0.08835983,-0.13406467,0.18056878,1.2294639,9.7276,0.038244553,0.050673395,0.87548006,0.47906595,0.109471634,1.3079767,9.494271,0.046577103,0.012064233,-0.004581355
2023/4/21 14:56,8721,-0.019681677,0.07624447,-0.12067127,0.17697868,1.2434862,9.725883,0.038478427,0.05135533,0.8749825,0.479883,0.17901304,1.2876377,9.493075,-0.010842538,-0.007482879,-0.00335966
2023/4/21 14:56,8760,0.023654282,0.06092894,8.51E-04,0.17440006,1.2456431,9.725654,0.038424466,0.051509388,0.8748997,0.48002172,0.17542382,1.2984054,9.643972,0.011147963,0.014507622,0.017409148
2023/4/21 14:56,8800,-5.65E-04,0.063940644,-0.13477993,0.17656025,1.2569681,9.724157,0.03885484,0.051925346,0.8743685,0.48090932,0.18619151,1.3007982,9.463165,-0.009620844,-0.012369657,0.014965758
2023/4/21 14:56,8841,0.015221894,0.061100006,-0.004504204,0.18005611,1.2477986,9.725274,0.038772594,0.051436227,0.8745044,0.4807214,0.20174485,1.2575779,9.632009,-0.046271678,0.001068983,0.022295926
2023/4/21 14:56,8880,0.01720424,0.022168517,0.011610031,0.18100885,1.2382803,9.726473,0.03860588,0.05096531,0.87428516,0.48118347,0.18619151,1.2539886,9.647562,-0.0193944,0.008399149,0.028404398
2023/4/21 14:56,8921,0.040725395,-0.02083385,0.093673706,0.18500605,1.2281368,9.727684,0.03853474,0.05041048,0.8743025,0.48121613,0.22328027,1.1666505,9.737292,-0.023059484,-0.008704574,0.006413896
2023/4/21 14:56,8960,0.018857509,-0.030498266,-0.030960083,0.18649362,1.2218767,9.728444,0.03840074,0.050119955,0.87449366,0.4809098,0.20772691,1.1762218,9.57802,0.003817795,0.02183779,0.025961008
2023/4/21 14:56,9000,0.08212197,0.016481042,-0.06446648,0.18860516,1.2168937,9.729029,0.0383886,0.04983919,0.8746119,0.48072487,0.2675475,1.2157035,9.587592,-0.042606596,-0.007482879,-0.00335966
2023/4/21 14:56,9040,0.03183669,0.026917696,0.068333626,0.18978372,1.2036686,9.73065,0.03805437,0.049262457,0.8752332,0.47967905,0.16944176,1.2432209,9.703794,-0.001068983,0.029167956,0.001527118
2023/4/21 14:56,9081,0.04255861,0.02387476,-0.031589508,0.1807484,1.2072434,9.730379,0.037711166,0.049664892,0.8754827,0.47920907,0.22926232,1.1834004,9.62483,-0.007177455,0.008399149,0.017409148
2023/4/21 14:56,9120,0.018452987,0.022761106,0.1336708,0.18869084,1.1981509,9.731353,0.0378299,0.049071588,0.8756334,0.47898534,0.19935204,1.1822039,9.775578,-0.009620844,-0.011147963,-0.013133216
2023/4/21 14:56,9160,0.027251318,0.010731936,-0.002573013,0.19055796,1.2034492,9.730662,0.038075432,0.049239963,0.8753135,0.47953305,0.2053341,1.2216855,9.637991,0.012369657,0.018172706,-0.002137966
2023/4/21 14:56,9201,0.042055517,0.006818771,-0.004184723,0.1931393,1.2025957,9.730717,0.038078368,0.0492094,0.8762076,0.47790036,0.20174485,1.2264712,9.652348,-0.012064233,-0.017256435,-0.010689827
2023/4/21 14:56,9240,-0.01976654,0.010947108,-0.11240959,0.19576225,1.2050858,9.730356,0.038263086,0.049252845,0.876143,0.47799954,0.19217357,1.2264712,9.560074,-0.001068983,0.012064233,-0.00335966
2023/4/21 14:56,9280,-0.034819484,0.025502324,0.023623466,0.18626305,1.2001293,9.731154,0.03768325,0.049286313,0.87646925,0.47744367,0.14910276,1.2073286,9.691829,-0.013285928,0.026724568,0.002748813
2023/4/21 14:56,9320,0.013892174,0.027294755,-0.11172867,0.17577828,1.2051294,9.730733,0.037312753,0.049784414,0.87667775,0.47703812,0.17063816,1.2061322,9.490683,0.014813046,0.031611346,0.005192202
2023/4/21 14:56,9361,0.04865995,-0.02900207,0.034446716,0.16978724,1.1962525,9.731935,0.036944583,0.049623188,0.87620395,0.47795326,0.22806591,1.1546865,9.726525,-0.05971032,0.009620844,-0.00335966
2023/4/21 14:56,9400,0.053954154,-0.03556645,0.17133999,0.16908261,1.1870128,9.733078,0.036591172,0.049114596,0.87650293,0.47748446,0.21131615,1.1499008,9.819845,0.030695075,0.016951011,-0.004581355
2023/4/21 14:56,9440,0.043327183,0.02970612,0.07418823,0.1681752,1.1997669,9.73153,0.03692339,0.049666457,0.875893,0.47851998,0.2268695,1.2109178,9.713365,0.019699825,-0.001374406,-0.007024744
2023/4/21 14:56,9481,-0.014636636,0.045102358,0.044311523,0.1728344,1.2096637,9.730223,0.03748002,0.049919695,0.8748646,0.48032826,0.18140587,1.2420245,9.67149,0.044133715,-0.007482879,0.002748813
2023/4/21 14:56,9520,-0.039631173,0.016589642,-0.1270771,0.17758477,1.230432,9.727531,0.038178917,0.05075678,0.8750604,0.4798286,0.12023934,1.2456137,9.538539,0.017256435,-0.011147963,-0.010689827
2023/4/21 14:56,9560,-0.023415878,-0.04695463,-0.025815964,0.1739689,1.2333822,9.727224,0.038161878,0.05092414,0.8743729,0.48106387,0.19097716,1.1834004,9.633204,0.020921519,0.013285928,0.012522369
2023/4/21 14:56,9600,0.030903056,-0.01187849,-0.024155617,0.18382609,1.234549,9.726894,0.03864557,0.050763607,0.8736655,0.4823258,0.20653051,1.2336496,9.645169,-0.0193944,-0.039246935,-0.016798299
2023/4/21 14:56,9641,-0.020632595,0.005057931,0.13959599,0.19042715,1.231271,9.727183,0.03891601,0.05037085,0.8737089,0.48226663,0.18260227,1.2276676,9.742078,0.018478129,-0.017256435,0.001527118
2023/4/21 14:56,9680,0.020738661,-0.014210463,-0.006645203,0.19814438,1.2406934,9.725832,0.039585497,0.050532892,0.8728159,0.48380962,0.24242285,1.2587743,9.620045,0.033138465,-0.019699825,0.008857286
2023/4/21 14:56,9720,0.060762912,0.04260266,-0.03826809,0.2085378,1.2519457,9.724173,0.040405367,0.05072076,0.87206286,0.48507854,0.24601208,1.2792628,9.6043415,0.003817795,-0.018478129,-0.004581355
2023/4/21 14:56,9761,-0.033515766,0.004742146,0.013348579,0.20947102,1.2515963,9.724198,0.04045098,0.05067185,0.8719423,0.4852965,0.22806591,1.2240783,9.681062,-0.004734066,0.010842538,0.01007898
2023/4/21 14:56,9800,0.026739359,-0.002874494,0.016859055,0.21262886,1.2522962,9.72404,0.04059266,0.050638348,0.87210023,0.48500425,0.2364408,1.2396317,9.628419,0.009926268,-0.018478129,-0.009468133
2023/4/21 14:56,9840,0.00985305,0.008219957,-0.09279823,0.21887895,1.2579006,9.723177,0.04104463,0.05070798,0.87176716,0.4855575,0.20413768,1.2587743,9.5122175,0.00503949,-0.001374406,0.002748813
2023/4/21 14:56,9881,-0.004373446,-0.023550868,-0.038591385,0.21828899,1.2546036,9.723616,0.040761255,0.050658714,0.8733054,0.48281455,0.18978074,1.2276676,9.609127,-0.010842538,-0.008704574,0.002748813
2023/4/21 14:56,9920,-0.044798,-0.058805466,-0.03972912,0.21865037,1.2523282,9.723901,0.040716115,0.05060853,0.87349784,0.48247543,0.18140587,1.1905788,9.576824,0.003817795,0.001068983,0.003970507
2023/4/21 14:56,9960,0.03656447,0.010284066,-0.004693031,0.21754624,1.2458041,9.724764,0.040492993,0.050352298,0.873629,0.48228347,0.22208385,1.2683456,9.649955,-0.027946262,-0.00503949,0.001527118
2023/4/21 14:56,10000,0.014091462,0.004036307,0.04104519,0.22451596,1.2357383,9.72589,0.040544514,0.049737092,0.87375605,0.48211274,0.23285155,1.2252748,9.6834545,-0.027946262,-0.017256435,0.005192202
2023/4/21 14:56,10040,0.022470385,-0.019521594,0.10493755,0.22981589,1.2279531,9.726752,0.04058044,0.049263608,0.87385464,0.48197964,0.23404796,1.1953645,9.687043,0.007482879,-0.00503949,0.005192202
2023/4/21 14:56,10081,0.044755623,0.027581692,-0.04575634,0.23091139,1.2288907,9.726607,0.040655147,0.049276717,0.8738278,0.48202065,0.26395825,1.2480066,9.568449,-0.009620844,-0.007482879,-9.16E-04
2023/4/21 14:56,10120,-0.039272323,-0.001674295,-0.010736465,0.23363496,1.2219368,9.727419,0.0406201,0.04895473,0.8739136,0.48190087,0.18140587,1.2013465,9.670294,-0.015729317,-0.009926268,0.006413896
2023/4/21 14:56,10160,0.017220706,-0.02072382,-0.045505524,0.22977807,1.2212439,9.727598,0.04040143,0.048940353,0.8739865,0.48178852,0.27472594,1.1989537,9.595966,-0.013285928,-0.001374406,0.011300675
2023/4/21 14:56,10201,0.01683943,0.039391994,0.13511276,0.23793553,1.2120914,9.728545,0.04053212,0.04836682,0.8740774,0.48167056,0.2388336,1.2468102,9.764811,-0.001068983,-0.009926268,-9.16E-04
2023/4/21 14:56,10240,0.041877672,-0.027990699,-0.003662109,0.24141406,1.2195377,9.72753,0.040887017,0.04860321,0.87390995,0.48192048,0.27472594,1.1810075,9.61152,0.017256435,-0.003817795,0.017409148
2023/4/21 14:56,10280,0.06114517,0.018206477,-0.005164146,0.25172076,1.2173123,9.727548,0.041298047,0.048245195,0.87386185,0.48200867,0.30702907,1.2264712,9.643972,-0.008399149,-0.018478129,-0.005803049
2023/4/21 14:56,10321,0.014519975,0.002025127,-0.07893467,0.24927676,1.2259444,9.726526,0.041455563,0.048590224,0.873732,0.48219588,0.24122643,1.1965609,9.552896,0.022143213,0.03771982,0.006413896
2023/4/21 14:56,10360,0.0801373,-0.01319623,0.002635956,0.24839036,1.2206525,9.727214,0.041234385,0.048475042,0.873829,0.48205054,0.31540394,1.2228819,9.661919,-0.03283304,-0.017256435,-0.009468133
2023/4/21 14:56,10400,0.027699888,0.039504647,-0.015476227,0.25656345,1.2137356,9.727867,0.04142442,0.047966752,0.8738858,0.4819821,0.2914757,1.2324532,9.64158,-0.009620844,0.008399149,-0.007024744
2023/4/21 14:56,10440,0.011030555,0.012148142,0.02960968,0.2510113,1.2194763,9.727295,0.041322798,0.04835741,0.87382805,0.48205653,0.2579762,1.208525,9.667901,0.025808297,0.010842538,3.05E-04
2023/4/21 14:56,10481,-0.007762536,0.019065022,-0.004148483,0.25183713,1.2232752,9.726796,0.04146067,0.0485019,0.87375075,0.48217025,0.27233312,1.2480066,9.629616,-0.025502874,-0.001374406,-0.007024744
2023/4/21 14:56,10520,0.033280283,0.012826204,0.07944393,0.25320646,1.2202984,9.727135,0.041413117,0.04828162,0.8738168,0.48207676,0.2783152,1.2587743,9.702597,0.024586603,0.004734066,0.001527118
2023/4/21 14:56,10560,0.009946823,0.052000403,-0.120194435,0.25448388,1.2334397,9.725444,0.041849732,0.04887725,0.8735398,0.4824809,0.2675475,1.2804592,9.517003,-0.005955761,-0.00503949,0.006413896
2023/4/21 14:56,10601,-0.017212838,0.03057909,-0.013119698,0.25242007,1.2290845,9.726048,0.04164062,0.048740033,0.87363833,0.4823345,0.21849462,1.249203,9.601949,-0.0193944,0.018172706,0.008857286
2023/4/21 14:56,10640,0.028460532,0.099229455,-0.09644604,0.24630551,1.2268175,9.726491,0.041302096,0.048796352,0.8737331,0.48218614,0.28070801,1.3139588,9.532557,-0.026724568,0.018172706,0.019852536
2023/4/21 14:56,10680,0.10798371,0.04992044,0.054969788,0.24215527,1.2179816,9.727706,0.040889487,0.04850844,0.87383556,0.48206466,0.31540394,1.2587743,9.655936,-0.058488626,0.0193944,0.002748813
2023/4/21 14:56,10721,0.13041818,0.13242793,0.02157402,0.24840091,1.1945618,9.730453,0.040604386,0.04728934,0.87373066,0.48239997,0.36924243,1.3163515,9.612717,-0.08292252,-0.009926268,0.019852536
2023/4/21 14:56,10760,0.14402065,0.18312025,0.01829338,0.26965213,1.1811802,9.73152,0.041221403,0.046166554,0.87377375,0.48237833,0.41111684,1.3522439,9.630812,-0.046271678,-0.039246935,0.013744064
2023/4/21 14:56,10800,0.14483258,0.27524078,-0.08800411,0.2918829,1.1767819,9.731413,0.042047355,0.04553894,0.8736569,0.48257828,0.46031925,1.3965111,9.531361,-0.09269607,-0.022143213,0.018630842
2023/4/21 14:56,10841,0.15509209,0.23507321,0.10846901,0.31054664,1.1436722,9.734781,0.04215546,0.04344217,0.8734606,0.48311725,0.45194438,1.3749757,9.817452,-0.133012,-0.011147963,0.002748813
2023/4/21 14:56,10880,0.16834539,0.15206993,0.18879604,0.32867503,1.1211612,9.736805,0.042439014,0.041953288,0.87313735,0.4838078,0.5129613,1.2480066,9.75165,-0.051158458,-0.033138465,-0.016798299
2023/4/21 14:56,10920,0.12183884,0.10659397,-0.17421436,0.34970602,1.1105835,9.737284,0.043158848,0.04091467,0.87264395,0.4847225,0.4447659,1.2013465,9.447612,-0.057266932,0.007177455,-0.002137966
2023/4/21 14:56,10961,0.10359323,0.06678975,-0.097486496,0.35825127,1.0964417,9.738576,0.043188006,0.04007021,0.8726754,0.4847337,0.40034914,1.1893824,9.5840025,-0.04382829,-0.03191677,0.02107423
2023/4/21 14:56,11000,-0.11198154,0.0735749,-0.18100739,0.37068862,1.096362,9.738119,0.04371082,0.039792776,0.8730432,0.484047,0.2364408,1.1510973,9.465558,0.002596101,-0.00503949,0.06627693
2023/4/21 14:56,11040,-0.1157096,0.005775452,-0.15639877,0.360947,1.1013739,9.73792,0.043326862,0.040336844,0.87391603,0.4824588,0.21969102,1.0769198,9.479915,0.019699825,0.024281178,0.12125318
2023/4/21 14:56,11080,-0.19254956,-8.17E-04,-0.4544468,0.3528072,1.1290712,9.735045,0.043457862,0.041644264,0.8751465,0.48009974,0.14057833,1.127169,9.132806,0.106440134,0.005955761,0.14813046
2023/4/21 14:56,11121,-0.15460578,0.078475595,-0.64533806,0.345514,1.1688204,9.730616,0.04404149,0.044012114,0.8766881,0.47701275,0.17183457,1.2623636,8.887392,0.05390727,0.007177455,0.15546063
2023/4/21 14:56,11161,-0.102849826,0.3894961,-0.6155977,0.3390235,1.1887487,9.728429,0.04415014,0.045154672,0.8775799,0.4752529,0.24481566,1.6550856,8.944819,-0.03283304,0.045049984,0.14935215
2023/4/21 14:56,11200,0.04278198,0.11105406,0.4232893,0.3166985,1.1478376,9.734093,0.042003445,0.043989975,0.8792434,0.47247404,0.36804605,1.0470095,10.151401,-0.33581328,0.052380152,0.1847813
2023/4/21 14:56,11240,0.044670522,-0.27667296,1.2542953,0.31072652,0.9907582,9.751525,0.03779482,0.037177492,0.88122237,0.46971962,0.33693933,0.7405786,10.727174,-0.21364383,0.05482354,0.13713521
2023/4/21 14:56,11280,-0.09952423,0.40873712,-0.30565548,0.2798667,0.9700562,9.75454,0.03578613,0.037097506,0.88278604,0.46693885,0.17063816,1.532902,9.132806,0.06001574,0.078035735,0.16523418
2023/4/21 14:56,11320,-0.005051255,1.177402,-0.87234116,0.26849756,1.0279537,9.748929,0.03660901,0.040034536,0.8832579,0.46573862,0.29506496,2.2799113,8.7845,-0.06704049,0.04382829,0.21043688
2023/4/21 14:56,11361,-0.28605324,1.088385,-0.30425453,0.25701553,1.077565,9.743879,0.037245005,0.042582057,0.88349104,0.46501946,-0.0951147,2.0847468,9.355488,-0.21364383,0.03771982,0.17378604
2023/4/21 14:56,11400,-0.32984865,0.7399323,1.1684732,0.22619963,1.0242934,9.750386,0.03451514,0.040955283,0.8843694,0.4637048,-0.0424726,1.7388343,10.899607,-0.2405211,-0.009926268,0.1163664
2023/4/21 14:56,11441,-0.0737665,0.45714617,0.7185631,0.22991715,1.0197177,9.750779,0.03455458,0.040676665,0.8846042,0.46327826,0.116650105,1.4730815,10.246066,0.068567604,-0.027029991,0.011300675
2023/4/21 14:56,11481,-0.011233345,0.5666417,-0.04244709,0.23860864,1.065914,9.745628,0.03606163,0.042553294,0.8843258,0.46352637,0.27233312,1.6586747,9.522985,0.16263808,-0.020921519,0.005192202
2023/4/21 14:56,11520,0.08743027,0.5789733,-0.54889965,0.2532819,1.1384094,9.737057,0.03846218,0.045485977,0.8840318,0.46361566,0.31660035,1.7663518,9.0058365,0.1601947,-0.08322794,0.012522369
2023/4/21 14:56,11561,0.10873288,0.6753466,-0.71092606,0.3033176,1.192435,9.7291565,0.042028304,0.046740808,0.88372684,0.4637627,0.4075276,1.8646071,8.935248,0.051463883,-0.13087402,-0.010689827
2023/4/21 14:56,11600,0.050211668,0.5438957,-0.389596,0.34691936,1.1940229,9.727505,0.0441062,0.04571596,0.88301986,0.46501672,0.31899318,1.7184954,9.327821,-0.056045234,-0.09300149,-0.04367558
2023/4/21 14:56,11640,-0.18517712,0.7020315,-0.21243572,0.3604674,1.2013611,9.726109,0.04494672,0.045675874,0.88246065,0.4660007,0.1634597,1.8777676,9.368649,0.07101099,-0.003817795,-0.05467083
2023/4/21 14:56,11680,-0.14606203,0.61683095,-0.14684486,0.36516201,1.2278241,9.722629,0.045916624,0.046643425,0.8811579,0.46827003,0.26994032,1.8765712,9.592378,0.002596101,-0.10155336,-0.1951657
2023/4/21 14:56,11721,-0.07210815,0.84200215,-0.048373222,0.39970157,1.2977579,9.71218,0.049103945,0.048189517,0.877803,0.4740553,0.34052858,2.156681,9.519396,0.08689302,-0.097888276,-0.28068432
2023/4/21 14:56,11760,-0.14857352,0.87687993,0.42366695,0.40023115,1.3853121,9.700057,0.052079853,0.052176714,0.873652,0.480934,0.29386854,2.2272692,10.156186,0.041690327,-0.058794048,-0.23425992
2023/4/21 14:56,11800,-0.048218697,0.6238804,1.0566473,0.40510124,1.461039,9.688738,0.054949082,0.0556632,0.87007606,0.48667225,0.35967115,2.1435204,10.7307625,0.18707198,-0.08567133,-0.266024
2023/4/21 14:56,11841,-0.26177382,0.9621625,0.71957207,0.39147335,1.6351078,9.661447,0.058434922,0.061649207,0.8665282,0.4918471,0.15987046,2.5468607,10.2723875,0.34955734,0.093917765,-0.21959959
2023/4/21 14:56,11880,-0.33463436,-0.32124662,1.194315,0.27494544,1.7156588,9.651492,0.05584637,0.06922444,0.8644124,0.49485388,-0.16226329,1.0840982,11.287393,-0.003512372,0.33336988,-0.06933116
2023/4/21 14:56,11920,-0.25682712,-1.582105,1.660778,0.12773755,1.6978245,9.657715,0.048719138,0.07224968,0.8654148,0.49342033,-0.08554341,0.200698,11.264661,0.34467056,0.21608722,-0.07177455
2023/4/21 14:56,11960,0.057531215,-1.0628659,-0.72604465,0.06463858,1.8578104,9.62885,0.050121136,0.08095161,0.8640734,0.49427915,0.11784652,1.1666505,8.624032,0.45706648,0.1293469,-0.1487413
2023/4/21 14:56,12001,0.1450306,-0.23978114,-0.9593096,-0.001363498,1.9407688,9.61269,0.049544107,0.08622422,0.86241114,0.49634442,0.098703936,1.5581762,8.978319,-0.052380152,0.11957335,-0.06933116
2023/4/21 14:56,12040,0.30526263,-0.7638047,1.105073,-6.04E-04,1.8672905,9.627233,0.04777927,0.082854554,0.86215025,0.49754322,0.36565322,0.9451649,11.045718,-0.21730891,-0.18462859,-0.07666133
2023/4/21 14:56,12080,0.2990867,-1.5785064,1.0513916,0.09705883,1.7920247,9.641038,0.05032844,0.07688249,0.86141115,0.49952674,0.38001016,0.24616162,10.782358,-0.056045234,-0.2493784,-0.074217945
2023/4/21 14:56,12121,0.37174785,-1.4545314,-0.17298412,0.1441039,1.8149976,9.636151,0.053030297,0.076686546,0.86116403,0.49970344,0.47706902,0.42681974,9.357881,0.2701472,0.06704049,0.054059982
2023/4/21 14:56,12160,0.16570501,-1.4617003,-1.1946526,0.11731131,1.9088584,9.618362,0.054187194,0.081631966,0.8613422,0.49848735,0.26156542,0.5131109,8.404939,0.26403874,0.025502874,0.01007898
2023/4/21 14:56,12200,0.096817404,-1.3455296,-1.6344757,0.13531503,1.9545991,9.608933,0.056265242,0.08315603,0.8605797,0.49932134,0.27711877,0.61959153,8.184649,-0.014507622,-0.09300149,-0.0839915
2023/4/21 14:56,12240,0.39675838,-1.5527884,-0.8535671,0.13248503,1.9258038,9.614786,0.05548455,0.08187675,0.86013794,0.5003803,0.60747784,0.39690945,9.0646105,0.001374406,0.1085781,-0.05955761
2023/4/21 14:56,12281,0.64113045,-1.6559291,-0.30062866,0.079179496,1.9289299,9.614747,0.05327397,0.08334419,0.85971886,0.501098,0.7007979,0.27846473,9.464361,0.052685577,0.08903099,-0.057114217
2023/4/21 14:56,12320,0.62780935,-1.8107072,-0.23249054,0.08944211,1.920928,9.616259,0.05355333,0.08270021,0.85954857,0.5014668,0.6972087,0.08449655,9.509825,-0.030389652,-0.072232686,0.038177952
2023/4/21 14:56,12360,0.49617416,-1.8254675,0.27915192,0.107473664,1.8700253,9.6261015,0.05293182,0.080022566,0.86034167,0.5006065,0.59551376,0.073728845,10.036545,-0.103691325,0.02183779,0.09071082
2023/4/21 14:56,12400,0.46982795,-1.4416102,-0.15284538,0.12027346,1.822174,9.635123,0.05210402,0.07765694,0.8615053,0.49906227,0.58474606,0.4915755,9.426076,-0.053601846,-0.047798797,0.11514471
2023/4/21 14:56,12441,0.35727644,-0.96995974,-0.5652027,0.15417618,1.7712529,9.644132,0.052110996,0.07463624,0.8628811,0.49714184,0.4531408,0.8458628,9.18784,-0.16355436,-0.051463883,0.17256436
2023/4/21 14:56,12480,0.22641133,-0.87436664,-0.58667946,0.17663537,1.7034281,9.655957,0.0510889,0.0712257,0.86502004,0.49402145,0.4170989,0.8327023,9.150752,-0.11957335,0.012064233,0.18966807
2023/4/21 14:56,12520,0.1523664,-0.85598814,-0.5231209,0.18559419,1.626709,9.669011,0.04933656,0.06770216,0.8666697,0.49179867,0.3022434,0.7298109,9.362666,-0.2637333,0.009620844,0.10903624
2023/4/21 14:56,12561,0.07131949,-0.7640641,0.044498444,0.16784698,1.4458604,9.698026,0.043753352,0.060199253,0.8688981,0.4893647,0.3022434,0.70812595,9.877273,-0.2857238,0.12690352,0.028404398
2023/4/21 14:56,12600,0.5240732,-0.3549896,0.27698898,0.15309936,1.3325859,9.714481,0.040246613,0.055493005,0.8691832,0.48971552,0.72607213,1.0900803,9.925279,-0.09636115,0.026724568,-0.120642334
2023/4/21 14:56,12640,0.4139289,0.1482178,-0.55430126,0.1866452,1.3009658,9.718182,0.04124278,0.05279185,0.8671052,0.49359965,0.5907281,1.4742779,9.189037,-0.14034216,-0.027029991,-0.12308572
2023/4/21 14:56,12681,0.13192667,0.2147758,-0.3623352,0.2018729,1.2434819,9.7254,0.040520832,0.05000713,0.86599505,0.49589303,0.30343983,1.4359927,9.459576,-0.20875706,0.040163208,-0.046118967
2023/4/21 14:56,12720,-0.07991658,0.35214257,-0.2908516,0.17755926,1.2119178,9.7298565,0.03873944,0.049138807,0.8650595,0.4977516,0.047258247,1.5940685,9.276375,-0.081700824,0.081700824,-0.06566608
2023/4/21 14:56,12760,-0.1000438,0.39143765,-0.1420927,0.13393542,1.1771402,9.734823,0.03564199,0.04827583,0.86385334,0.5001565,0.06520442,1.6191932,9.850952,-0.28205872,0.049936764,-0.0387888
2023/4/21 14:56,12801,-0.016279012,0.61621606,0.2519436,0.1132801,1.1392088,9.739597,0.03425072,0.04738803,0.86297446,0.50185287,0.07956135,1.8130118,9.800702,0.020921519,0.07559235,0.035734564
2023/4/21 14:56,12840,-0.06947105,0.7910788,-0.30025196,0.062334485,1.2323909,9.728705,0.034420177,0.05281395,0.8625756,0.5019854,-0.002991028,2.0404794,9.428469,0.075897776,0.13667707,0.13347013
2023/4/21 14:56,12880,0.2354827,0.8943411,-0.28521538,0.050104007,1.3005551,9.719899,0.035659377,0.05613818,0.86220556,0.5021737,0.3632604,2.1889842,9.406934,0.027029991,-0.025808297,0.12736166
2023/4/21 14:56,12921,0.41945258,0.7426977,-0.32393265,0.105847985,1.3807743,9.708381,0.040188547,0.058268808,0.8620126,0.50192016,0.5811568,2.0955145,9.439237,0.017256435,-0.012369657,0.22631891
2023/4/21 14:56,12960,0.5535604,0.76269317,0.20219898,0.15194009,1.429186,9.70076,0.043408215,0.05928459,0.8624358,0.5008049,0.70812595,2.2129123,9.942029,0.009926268,-0.001374406,0.16279079
2023/4/21 14:56,13000,0.37976938,0.8321117,0.45677757,0.20312239,1.4837445,9.6916275,0.046805307,0.06018111,0.8615254,0.5019576,0.5165506,2.2954648,10.359726,0.002596101,-0.044133715,0.006413896
2023/4/21 14:56,13040,0.07596731,0.98238456,0.87653446,0.22337669,1.5692028,9.6777115,0.050419934,0.06349717,0.8601164,0.5036126,0.28788647,2.8162026,10.463963,0.26159534,0.031611346,0.043064732
2023/4/21 14:56,13081,-0.024044529,-0.07355499,0.69903564,0.18811259,1.7193717,9.652915,0.052748986,0.07110465,0.8597761,0.50293815,0.011365907,1.3666009,10.807483,0.062459134,0.08903099,0.15668233
2023/4/21 14:56,13120,0.011219025,-1.2602558,1.8333712,0.21459638,1.6182216,9.669834,0.051071998,0.06608571,0.8617506,0.5004101,0.20892332,0.33589247,11.69208,-0.07314896,-0.20173231,-0.06933116
2023/4/21 14:56,13160,-0.16679488,-1.3726821,0.2753973,0.24977902,1.6494904,9.663705,0.053582236,0.0664617,0.8605467,0.5021664,0.1369891,0.4232305,9.752846,0.27259058,-0.002596101,-0.12308572
2023/4/21 14:56,13201,0.084145725,-0.7448058,-1.0178213,0.21292292,1.7586666,9.645316,0.055027734,0.072094694,0.8585173,0.5047003,0.29386854,1.1140085,8.744869,0.26892552,0.11468657,-0.18172707
2023/4/21 14:56,13240,-0.048133567,-0.89570785,-0.88630486,0.1404446,1.8288945,9.633577,0.053983774,0.07687667,0.85617626,0.5080728,0.037686955,0.9212367,9.0513,0.12598725,0.16233265,-0.19760908
2023/4/21 14:56,13280,-0.2600751,-1.3923633,-0.20450497,0.07369408,1.8414173,9.631933,0.051943738,0.07888245,0.8543739,0.51100355,-0.22567308,0.43295136,9.672687,0.011147963,0.1085781,-0.09498675
2023/4/21 14:56,13320,0.02677256,-1.7020035,0.11842728,0.02658242,1.8326492,9.633851,0.049379844,0.07982453,0.85418624,0.51142496,0.08554341,0.09765708,9.975528,0.016034741,0.09880454,-0.019241689
2023/4/21 14:56,13361,-0.17313848,-1.9062352,0.113661766,0.009559006,1.818506,9.636562,0.0483495,0.07958892,0.85364735,0.5124589,-0.21011974,-0.08419745,9.930064,0.013591352,0.010842538,-0.060779303
2023/4/21 14:56,13400,-0.2914345,-1.9635199,-0.2431984,5.41E-04,1.8220106,9.635905,0.048048895,0.079869755,0.8533106,0.513004,-0.2795116,-0.109322086,9.472736,0.08567133,-0.016034741,0.005192202
2023/4/21 14:56,13440,-0.6206886,-1.8340524,-0.92850685,0.010605241,1.8225231,9.635802,0.048539262,0.07971676,0.8533928,0.512845,-0.66131634,0.115603246,8.815607,0.011147963,-0.014813046,0.06383354
2023/4/21 14:56,13481,-0.6842057,-1.6297798,-0.7411251,9.01E-05,1.7894197,9.642011,0.047059186,0.07861122,0.85442734,0.511429,-0.70812595,0.16241284,9.113664,-0.1293469,0.038941514,0.11025793
2023/4/21 14:56,13520,-0.39292488,-1.7254351,-0.13063622,-3.02E-04,1.6827196,9.661203,0.044054635,0.07399279,0.85595196,0.5098338,-0.3453142,-0.006430711,9.819845,-0.31626618,-0.03191677,0.12125318
2023/4/21 14:56,13560,-0.13577107,-1.4973143,0.26024723,0.0199482,1.5643398,9.681055,0.04167263,0.06831509,0.8575131,0.5082004,-0.14072788,0.11440683,10.060473,-0.16966283,-0.019699825,0.10781454
2023/4/21 14:56,13601,-0.32264873,-1.2342951,0.12851334,0.013012276,1.4817306,9.694056,0.039048206,0.06493087,0.8589866,0.50636077,-0.32856447,0.32392836,9.940832,-0.10124794,0.04871507,0.12858334
2023/4/21 14:56,13640,-0.38096565,-0.694278,-0.094488144,-0.017993085,1.397431,9.706557,0.03523086,0.062145904,0.86130524,0.5030407,-0.3740281,0.7920243,9.672687,-0.034054734,-0.016034741,0.12736166
2023/4/21 14:56,13681,-0.19283378,-0.5009496,-0.14882278,-0.021179102,1.3411604,9.714485,0.033424385,0.059849,0.86322856,0.5001373,-0.2053341,0.8327023,9.725328,-0.016951011,0.031611346,0.14935215
2023/4/21 14:56,13720,-0.08260799,-0.36848885,-0.36435795,-0.049738463,1.3271884,9.7163,0.03159985,0.06006687,0.86494887,0.4972493,-0.14670993,0.93320084,9.436844,0.04291202,0.09269607,0.1847813
2023/4/21 14:56,13762,0.124350935,-0.41112053,-0.23147392,-0.058532517,1.316591,9.717692,0.030970855,0.059535094,0.8668931,0.4939562,0.13220344,0.80518484,9.555288,0.025808297,-0.055128966,0.17500775
2023/4/21 14:56,13801,0.12384886,-0.54042083,-0.4519348,0.006594843,1.2850312,9.72209,0.032641347,0.05697279,0.8683437,0.49159724,0.14192429,0.7920243,9.2285185,0.012369657,-0.08567133,0.13102673
2023/4/21 14:56,13840,0.28275186,-0.031128764,-0.7927427,0.035064656,1.3025491,9.719698,0.03424016,0.057104748,0.86923784,0.48988998,0.32138598,1.343869,8.887392,0.17852011,0.009620844,0.0723854
2023/4/21 14:56,13881,0.17543831,0.46031606,-1.408946,0.06385875,1.3926876,9.707046,0.037892267,0.06035399,0.8681716,0.49112082,0.2388336,1.8801605,8.157132,0.0917798,-0.04902049,0.057725064
2023/4/21 14:56,13920,0.038664237,0.27523208,-0.7528038,0.07001082,1.4247179,9.7023535,0.039166622,0.06155108,0.8676018,0.49187863,0.10109676,1.6120147,8.899356,-0.0193944,0.07314896,0.07727218
2023/4/21 14:56,13960,0.05494779,0.04193759,-0.37880802,0.05352962,1.4197679,9.703183,0.03835127,0.0618702,0.86748374,0.49211103,0.11306087,1.4335998,9.246465,-0.047493376,0.002290677,-0.05833591
2023/4/21 14:56,14001,0.1679947,0.28578794,-0.16848373,0.06645135,1.4119356,9.704247,0.038791414,0.060961746,0.8657134,0.495297,0.27711877,1.7807087,9.383005,-0.027946262,-0.036803547,-0.15729317
2023/4/21 14:56,14040,0.24588022,0.709823,-0.062026024,0.08829925,1.4482223,9.698723,0.0410825,0.061765227,0.8624149,0.5007373,0.28549364,2.2260728,9.58161,-0.03283304,-0.039246935,-0.22082129
2023/4/21 14:56,14080,0.001153685,1.010503,0.3971176,0.10439267,1.4881375,9.692519,0.043324187,0.06278578,0.8582855,0.5074712,0.046061836,2.5468607,10.000652,-0.049936764,-0.062459134,-0.24281178
2023/4/21 14:56,14121,-0.10373493,1.0286561,0.81860924,0.10758941,1.5310787,9.685794,0.04501741,0.064163454,0.8541066,0.5141579,0.032901313,2.5169504,10.563265,-0.11957335,-0.075897776,-0.2635806
2023/4/21 14:56,14160,-0.08054653,0.97258973,1.3390999,0.12798661,1.5017421,9.690139,0.045769356,0.062013097,0.84957385,0.52180827,0.05922236,2.515754,11.00848,-0.058488626,-0.10766183,-0.34176904
2023/4/21 14:56,14200,0.03131354,1.3402858,1.181942,0.14436747,1.5411844,9.683713,0.048087183,0.06289417,0.84493315,0.5289801,0.21251257,2.8126135,10.789536,0.14309096,-0.09300149,-0.29290125
2023/4/21 14:56,14240,-0.07716815,0.65310764,1.4266052,0.15961549,1.5785949,9.677445,0.050152514,0.06381487,0.84163225,0.5339171,0.032901313,2.0344975,11.092378,0.014813046,-0.04902049,-0.16217995
2023/4/21 14:56,14281,-0.32484436,-0.35499418,1.316905,0.14668854,1.5897204,9.675828,0.050128024,0.06447655,0.8397154,0.5368501,-0.2579762,1.0613664,10.825429,0.0697893,0.038941514,-0.057114217
2023/4/21 14:56,14320,-0.27942044,-0.9705058,0.58428097,0.15141626,1.5999507,9.674069,0.050736394,0.06469588,0.8386776,0.53838664,-0.08793623,0.6495018,10.16815,-0.008399149,-0.14675605,-0.05467083
2023/4/21 14:56,14360,-0.16529113,-0.8962561,0.4928875,0.20125142,1.5832945,9.6759,0.052533526,0.06250258,0.83773065,0.53994536,0.084346995,0.7573284,10.207782,0.013591352,-0.1137703,-0.007024744
2023/4/21 14:56,14400,0.13078567,-0.72764415,0.1622839,0.21454844,1.6236715,9.668922,0.054072086,0.063395575,0.836945,0.5409069,0.35009986,0.89491564,9.722936,0.22860959,0.010842538,-0.030236939
2023/4/21 14:56,14440,0.121573046,-0.92892253,-0.6540842,0.21608195,1.7150247,9.653103,0.05707888,0.06760737,0.83545375,0.5423913,0.35847473,0.7752745,8.931659,0.26403874,-0.055128966,-0.09987353
2023/4/21 14:56,14481,0.24698178,-1.2232327,-0.7582331,0.2453741,1.8072612,9.635558,0.061171137,0.070578635,0.8332596,0.544936,0.54406804,0.5430212,8.827571,0.25915194,-0.08322794,-0.12308572
2023/4/21 14:56,14520,0.12846132,-1.4258323,-1.2042131,0.24748817,1.9010018,9.617449,0.06412039,0.074398525,0.83139515,0.5469328,0.31420752,0.4316054,8.305637,0.25915194,0.052380152,-0.062000997
2023/4/21 14:56,14560,-0.089840814,-1.4271445,-1.2176476,0.20311879,1.9335701,9.611995,0.06367365,0.07691364,0.8303181,0.54827166,0.002991028,0.44252264,8.546266,-0.058488626,0.14400724,-0.002137966
2023/4/21 14:56,14600,-0.23388192,-1.8380737,-0.14916992,0.14729284,1.8614432,9.627239,0.058854572,0.07538956,0.8305049,0.54873866,-0.029312078,0.013908282,9.520593,-0.16966283,0.14889401,-0.00335966
2023/4/21 14:56,14641,0.12145919,-1.6006057,-0.14914227,0.099371545,1.8111185,9.637445,0.055404305,0.07454785,0.83047885,0.5492521,0.27472594,0.14910276,9.398559,-0.040163208,0.08047912,0.030847786
2023/4/21 14:56,14680,0.42004806,-1.5751734,0.14234829,0.1075267,1.7508626,9.648487,0.054101042,0.07229823,0.83070487,0.54934096,0.6337989,0.14431712,9.792328,-0.18187977,-0.10888352,0.007635591
2023/4/21 14:56,14720,0.7110611,-1.5434825,0.47857666,0.16738519,1.664391,9.662928,0.05423785,0.06622734,0.8301195,0.5509753,0.9043374,0.080907315,10.120294,-0.16966283,-0.1565296,-0.055892523
2023/4/21 14:56,14761,0.7049296,-1.411806,0.25907326,0.22406395,1.6090832,9.6711445,0.05508673,0.062348448,0.8291088,0.55286235,0.9007482,0.25094727,9.728918,-0.003512372,-0.07711947,-0.035123717
2023/4/21 14:56,14800,0.2991302,-1.0044575,-0.58178806,0.28812435,1.5410633,9.680521,0.05597886,0.057420745,0.8294533,0.5527897,0.58474606,0.5549853,8.92807,-0.004734066,-0.13209572,3.05E-04
2023/4/21 14:56,14840,0.14590758,-0.9483861,-0.5634403,0.34696898,1.4746128,9.688937,0.05647286,0.052368954,0.8301882,0.55213755,0.48424748,0.49277192,9.008229,-0.07070557,-0.07834116,0.03939965
2023/4/21 14:56,14881,0.08817217,-0.99968845,-0.16303444,0.39344206,1.3426815,9.706327,0.054691777,0.04608506,0.83127534,0.5512407,0.5069793,0.31076783,9.479915,-0.24907297,-0.10155336,0.018630842
2023/4/21 14:56,14920,0.118695825,-0.8796653,0.23981476,0.43962038,1.1914902,9.724067,0.052331906,0.038366105,0.83211553,0.55079323,0.52612185,0.3801597,9.6942215,-0.14278555,-0.062459134,-0.019241689
2023/4/21 14:56,14960,0.07712719,-0.37352633,-0.43988895,0.45660275,1.1073139,9.73323,0.050673503,0.034287106,0.83224916,0.5510153,0.5404788,0.762114,9.09811,-0.1085781,-0.016034741,-0.016798299
2023/4/21 14:56,15001,0.001189768,-0.18356419,-0.27213764,0.4632908,1.0348513,9.740885,0.048950683,0.030934505,0.831605,0.55234045,0.40274197,0.83389866,9.373434,-0.22341739,0.03771982,-0.04734066
2023/4/21 14:56,15040,-0.111485004,-0.024154246,0.27861118,0.41800418,0.94066143,9.752478,0.04439273,0.028130515,0.8310018,0.5537815,0.30942187,0.9164511,9.817452,-0.12690352,0.11468657,-0.046118967
2023/4/21 14:56,15080,-0.06378144,0.14096594,-0.09678936,0.36351976,0.9340553,9.755296,0.041946184,0.029306985,0.8299585,0.5554732,0.31540394,1.1534901,9.452397,-0.0193944,0.115908265,-0.05467083
2023/4/21 14:56,15121,3.03E-04,0.5992696,-0.03956604,0.3269084,0.9406743,9.755955,0.04077338,0.030296715,0.82795113,0.55849487,0.31779677,1.5460626,9.508629,-0.069483876,0.06215371,-0.10964708
2023/4/21 14:56,15160,0.019029647,0.90478915,-0.06624794,0.29001477,0.98069495,9.75318,0.04047803,0.032981195,0.8244514,0.563519,0.34052858,1.9064814,9.485897,0.00503949,0.10735641,-0.07910472
2023/4/21 14:56,15200,0.09816536,0.9368601,0.001110077,0.25792682,1.0592179,9.745867,0.041574683,0.037022125,0.8215682,0.5673858,0.28788647,1.9447666,9.558878,0.033138465,0.081700824,0.001527118
2023/4/21 14:56,15240,-0.04748647,0.80985665,0.34813213,0.23388955,1.114205,9.740341,0.04230944,0.039884456,0.81941426,0.570245,0.1849951,1.9507487,9.969546,-0.04382829,0.038941514,-0.014354911
2023/4/21 14:56,15281,0.009976313,0.94119537,0.5459652,0.21769492,1.175386,9.733522,0.043617208,0.042731747,0.81667733,0.5738551,0.23045874,2.0991037,10.128669,0.06368083,0.030389652,-0.031458635
2023/4/21 14:56,15320,0.08778083,0.85459864,0.39872932,0.21074384,1.2628739,9.722712,0.04608447,0.046431553,0.81427824,0.5767766,0.27592236,2.1447167,9.964761,0.13331741,0.034054734,0.029626092
2023/4/21 14:56,15361,-0.30088186,0.8192289,0.33156967,0.17057598,1.3675351,9.709332,0.047672253,0.051857233,0.8122717,0.57901025,-0.1742274,2.1782165,10.099955,0.04902049,0.103691325,0.067498624
2023/4/21 14:56,15400,-0.21927096,0.74587905,0.5561037,0.12028886,1.4595699,9.696678,0.048435524,0.057105124,0.81089216,0.5803851,-0.068793654,2.255983,10.205389,0.22250111,0.04871507,0.055281676
2023/4/21 14:56,15440,-0.21926792,0.9842887,-0.04353237,0.080478415,1.6154277,9.672347,0.051622503,0.06467344,0.80884224,0.5821741,-0.20892332,2.3361425,9.71815,0.1369825,0.14767233,0.16401249
2023/4/21 14:56,15481,-0.4549203,-0.20117271,1.1469831,0.010029481,1.5828412,9.678063,0.048139073,0.06588832,0.8104522,0.5800936,-0.3022434,1.1558828,11.062468,-0.16599774,0.081700824,0.19821994
2023/4/21 14:56,15520,0.07247473,-0.7919183,0.78588295,0.006456565,1.5364734,9.685536,0.045718145,0.0639139,0.81325483,0.57657737,0.1634597,0.73340017,10.424332,0.1797418,-0.08933641,0.079715565
2023/4/21 14:56,15560,0.48257375,-0.6168258,-0.40590668,0.0803361,1.555388,9.682185,0.04931248,0.06256395,0.81366223,0.575854,0.6134599,1.167847,9.223733,0.2053974,-0.08567133,0.002748813
2023/4/21 14:56,15601,0.44656003,0.18271947,-0.89809704,0.11895172,1.6726934,9.662211,0.054038513,0.06559693,0.8121488,0.5772272,0.47228336,1.769941,8.840732,0.28358585,0.06704049,-0.007024744
2023/4/21 14:56,15640,0.007877804,-0.61922646,-0.11732483,0.122300215,1.7003247,9.657346,0.055604234,0.06723524,0.8112427,0.5781634,0.11306087,0.8889336,9.7863455,-0.11468657,-0.044133715,0.041843038
2023/4/21 14:56,15681,0.10136151,-1.6575015,0.82591915,0.13706525,1.6565924,9.664745,0.054871254,0.06499445,0.81174296,0.5777874,0.20772691,-0.04232305,10.523784,0.028251685,0.026724568,0.095597595
2023/4/21 14:56,15720,-0.1069238,-1.7486385,0.49523735,0.12627092,1.6674372,9.663028,0.054665335,0.065836385,0.8124101,0.576773,0.019740786,-0.045912284,10.144222,0.090558104,0.030389652,0.11025793
2023/4/21 14:56,15760,0.09115276,-1.6648895,-0.033391,0.13705835,1.6742066,9.66171,0.055269208,0.06584239,0.8128088,0.5761527,0.23165514,0.043818563,9.620045,0.002596101,-0.0697893,0.013744064
2023/4/21 14:56,15800,-0.006592646,-1.3485658,-0.15276527,0.14863804,1.6638095,9.663334,0.05551203,0.06500373,0.81222767,0.5770434,0.15029918,0.3717848,9.463165,0.11987878,0.0413849,0.04795151
2023/4/21 14:56,15841,-0.1368009,-1.2884318,-0.7074976,0.14368698,1.7141883,9.654599,0.05676049,0.06731012,0.8124812,0.57630014,0.037686955,0.38494533,8.829965,0.106440134,-0.027029991,0.16767757
2023/4/21 14:56,15880,-0.020895109,-1.450603,-0.28997707,0.194268,1.6746761,9.660647,0.057542037,0.064288296,0.8139614,0.57447606,0.19336998,0.1911267,9.476325,-0.21120045,-0.16141638,0.15057385
2023/4/21 14:56,15920,-0.0777569,-1.9163686,0.54332256,0.24153064,1.592446,9.673477,0.057003967,0.059501816,0.81489396,0.5737229,0.10827523,-0.37746778,10.264012,-0.08292252,-0.04902049,0.09315421
2023/4/21 14:56,15961,-0.63501185,-1.5316446,0.012877464,0.25708646,1.5643468,9.677661,0.056784403,0.05789795,0.81534433,0.57326865,-0.49860442,0.15164514,9.589985,0.028251685,0.004734066,0.117588095
2023/4/21 14:56,16000,-0.9993658,-1.3577873,-0.08497143,0.27020946,1.560546,9.677917,0.057120673,0.057452694,0.8163539,0.57184154,-0.6158527,0.22941187,9.6631155,0.022143213,-0.17241164,0.1408003
2023/4/21 14:56,16040,-0.34854403,-0.9100918,-0.54206467,0.35928845,1.5553211,9.67586,0.060619503,0.05471467,0.8171803,0.57056814,0.064008005,0.68300134,9.08136,-0.001068983,-0.14309096,0.12736166
2023/4/21 14:56,16081,-0.2032719,-0.759133,-0.36233902,0.35766304,1.4991657,9.68478,0.058697525,0.052614074,0.81948924,0.5676476,0.13459627,0.715454,9.404541,-0.093917765,0.103691325,0.23487078
2023/4/21 14:56,16120,-0.08396624,-0.76364124,0.16029167,0.33058524,1.418437,9.697894,0.05492264,0.050284714,0.82277507,0.5634679,0.2591726,0.69735825,9.75165,-0.009620844,0.058488626,0.15790401
2023/4/21 14:56,16160,0.02995351,-0.21928787,-0.40477276,0.3031964,1.3877445,9.703227,0.05275027,0.049904875,0.82427704,0.5615107,0.38838503,1.1786147,9.209376,-0.014507622,0.09147438,0.065055236
2023/4/21 14:56,16202,0.20819896,-0.19719982,-0.06238842,0.28104892,1.3612239,9.70765,0.05100921,0.049453657,0.82478225,0.56096935,0.47826543,1.1534901,9.628419,-0.027946262,0.100026235,0.10781454
2023/4/21 14:56,16241,0.29750523,-0.023195982,-0.13155937,0.27073643,1.3659364,9.707281,0.050871167,0.05050043,0.82551813,0.55980504,0.58713883,1.3654044,9.268001,0.10766183,0.09636115,0.12369657
2023/4/21 14:56,16280,0.15059403,-0.2657082,-0.41144943,0.27514425,1.364958,9.7072935,0.050749633,0.049901795,0.8260986,0.5590129,0.42801616,1.0350454,9.234501,-0.18920994,-0.020921519,0.11880979
2023/4/21 14:56,16320,-0.037128806,-0.3420167,0.010250092,0.29710135,1.2584559,9.72103,0.048515115,0.044852436,0.82758534,0.5574379,0.2388336,0.93679005,9.567253,-0.11835165,-0.025808297,0.111479625
2023/4/21 14:56,16360,-0.05417055,-0.03774631,-0.5350361,0.3022514,1.2243644,9.725224,0.04774487,0.043267246,0.8278057,0.5573025,0.27352953,1.2756736,9.023783,-0.07314896,-0.012369657,0.03451287
2023/4/21 14:56,16401,0.008042932,0.5348959,-0.48686886,0.3059215,1.2006935,9.728059,0.047341455,0.042021587,0.8262752,0.55969834,0.27352953,1.7352451,9.074182,-0.15500249,0.0193944,-0.07910472
2023/4/21 14:56,16440,-0.084974036,0.59935117,-5.42E-04,0.27353153,1.1899729,9.73034,0.04586108,0.042278312,0.82368016,0.56361365,0.17781663,1.7555841,9.573235,-0.09758285,0.071927264,-0.12308572
2023/4/21 14:56,16480,-0.13950935,0.738129,-0.15905762,0.24786444,1.2256207,9.726603,0.046072572,0.04425598,0.8202756,0.56838953,0.111864455,2.00698,9.28116,0.028251685,-0.024586603,-0.15607147
2023/4/21 14:56,16520,0.06551999,0.6469257,-0.09873104,0.26274016,1.299741,9.716585,0.04922924,0.046567332,0.8156333,0.57458705,0.3309573,1.9232312,9.412915,0.018478129,-0.10277505,-0.20616095
2023/4/21 14:56,16560,0.1631521,0.5345527,0.16440868,0.28651974,1.3471923,9.709447,0.051992547,0.047463063,0.81107444,0.5806912,0.3979563,1.9088743,9.745667,0.051463883,-0.027029991,-0.22204298
2023/4/21 14:56,16601,-0.21303111,0.8361262,0.14378452,0.26548713,1.4289157,9.698355,0.05399032,0.05105415,0.8060045,0.58722675,-0.001794617,2.264358,9.696614,0.03191677,0.051158458,-0.193944
2023/4/21 14:56,16640,-0.28470516,0.73655176,0.64283466,0.20497261,1.4614466,9.694976,0.052869704,0.053838868,0.8016086,0.5930681,-0.05682954,2.1530917,10.345368,-0.103691325,0.08292252,-0.22692975
2023/4/21 14:56,16680,-0.038637787,0.7202668,1.0388165,0.1622956,1.475018,9.693728,0.051918324,0.05508231,0.7968034,0.5994787,0.14431712,2.1806092,10.657782,-0.016951011,-0.022143213,-0.27946264
2023/4/21 14:56,16720,0.15106247,0.84379697,0.6851759,0.16004005,1.5336387,9.684664,0.05427462,0.057217162,0.79055667,0.6072896,0.35129628,2.378017,10.267602,0.08322794,-0.019699825,-0.3063399
2023/4/21 14:56,16761,0.10088423,0.6056236,0.63684845,0.15727872,1.5905586,9.675525,0.05650826,0.05897464,0.78435355,0.6149133,0.2711367,2.133949,10.505837,-0.04382829,-0.020921519,-0.32955208
2023/4/21 14:56,16800,0.13123977,0.09706426,0.8775549,0.15414625,1.622338,9.670297,0.057956956,0.059942175,0.7787159,0.62181145,0.24960132,1.6778173,10.6075325,0.16630317,-0.027029991,-0.26724568
2023/4/21 14:56,16840,-0.1399673,-0.26773965,0.16425514,0.15138046,1.6764932,9.6610985,0.059894532,0.061916627,0.775466,0.62548494,-0.036490545,1.3606188,9.9061365,0.16385978,-0.008704574,-0.17928366
2023/4/21 14:56,16881,-0.22560097,-0.47214377,-0.109705925,0.11905989,1.7335217,9.651483,0.060666464,0.06504559,0.77323383,0.62785196,-0.109471634,1.3091731,9.59477,0.2677038,-0.020921519,-0.1719535
2023/4/21 14:56,16920,-0.1940521,-0.49184608,-0.5240507,0.123174824,1.803108,9.638674,0.06335235,0.06746059,0.7705937,0.63057184,-0.055633128,1.3821542,9.147162,0.22372282,-0.12110047,-0.19883078
2023/4/21 14:56,16960,-0.077022,-0.3354044,-0.39104843,0.13058156,1.8675306,9.626301,0.065832295,0.069154285,0.76786095,0.63346136,0.016151553,1.6299609,9.379416,0.22005773,0.004734066,-0.10720369
2023/4/21 14:56,17001,-0.03556282,-0.6902473,-0.075304985,0.09965075,1.9383438,9.612662,0.067167245,0.07334289,0.76735294,0.63346577,0.1058824,1.0063314,9.685847,0.24082653,0.093917765,0.08093726
2023/4/21 14:56,17040,0.18910572,-1.6460396,0.4606285,0.10594717,1.9003714,9.620174,0.06598778,0.07252684,0.770494,0.6298607,0.3237788,0.17437695,10.188639,0.075897776,-0.052685577,0.083380654
2023/4/21 14:56,17080,0.18322141,-1.6347685,0.08165264,0.14093186,1.8589826,9.627809,0.06550663,0.0694783,0.77382106,0.62616503,0.30702907,0.23778675,9.6631155,0.15408622,0.003512372,0.13347013
2023/4/21 14:56,17120,-0.014828116,-1.5657479,-0.38945866,0.1433249,1.8966731,9.6204195,0.06661604,0.07111548,0.7755476,0.62372327,0.089132644,0.33349967,9.168698,0.07956286,0.026724568,0.20799349
2023/4/21 14:56,17161,-0.09449156,-1.418342,-0.30511665,0.15243495,1.8777654,9.623988,0.06616981,0.070247605,0.7773654,0.6216027,0.07477571,0.46764728,9.381809,-0.031611346,0.008399149,0.117588095
2023/4/21 14:56,17200,0.15337718,-1.3560886,-0.4080429,0.14291295,1.8753531,9.624605,0.06562176,0.07053739,0.77816087,0.6206319,0.32018957,0.5645566,9.216555,0.088114716,0.087809294,0.07849387
2023/4/21 14:56,17241,0.1641447,-0.98113334,-0.6177225,0.11525684,1.8562759,9.628673,0.063771255,0.07076397,0.7793555,0.6192985,0.29865417,0.8877372,9.028568,-0.025502874,0.13423368,0.0503949
2023/4/21 14:56,17280,0.23150252,-0.770226,-0.47103214,0.09031625,1.7755997,9.644141,0.060005262,0.06844689,0.7812147,0.6175904,0.3309573,1.0338489,9.151948,-0.07314896,0.056045234,0.016187452
2023/4/21 14:56,17320,0.28761083,-0.49072552,-0.4183092,0.09768338,1.708937,9.656106,0.05807202,0.06559928,0.78234565,0.616652,0.35009986,1.261167,9.17468,-0.09513946,0.04871507,0.07727218
2023/4/21 14:56,17360,0.18848197,-0.5274948,0.116194725,0.09805055,1.5991454,9.6748905,0.054440707,0.061270542,0.7841436,0.615143,0.24601208,1.0410274,9.872487,-0.3284831,0.056045234,0.10903624
2023/4/21 14:56,17401,-0.013701595,-0.5829532,0.7308302,0.08677091,1.4425813,9.699578,0.0488723,0.055413432,0.78619164,0.61354995,0.01375873,0.8171489,10.377672,-0.22463907,0.069483876,0.08460235
2023/4/21 14:56,17440,-0.106775925,-0.5911411,0.36851978,0.056703787,1.3232596,9.716798,0.04372132,0.05166866,0.7885166,0.61127764,-0.089132644,0.69735825,9.98151,-0.12690352,0.056045234,0.030847786
2023/4/21 14:56,17480,-0.20311841,-0.6014352,-0.043639183,0.013430327,1.2467431,9.727068,0.03949102,0.04998054,0.7896586,0.61023086,-0.22926232,0.69855464,9.538539,-0.001068983,0.13912046,0.01007898
2023/4/21 14:56,17521,-0.18086204,-0.20837665,-0.7653675,-0.05414162,1.2672642,9.724275,0.037321884,0.052982174,0.7905376,0.60897475,-0.20054846,1.0673485,8.818,0.12354386,0.07070557,0.12736166
2023/4/21 14:56,17560,0.035122607,-0.41427517,-0.6041298,-0.061020114,1.256614,9.725615,0.0365673,0.052862853,0.7922089,0.6068553,0.030508488,0.78843504,9.123235,-0.1281252,0.029167956,0.21288027
2023/4/21 14:56,17600,0.29678187,-0.38249302,0.03668785,-0.06489359,1.1589057,9.737717,0.033117335,0.04917218,0.7954961,0.6030516,0.24361925,0.73818576,9.677472,-0.17943639,0.08292252,0.21410197
2023/4/21 14:56,17640,0.26138124,-0.37469625,0.4118023,-0.035597228,1.033343,9.751991,0.030237556,0.043272935,0.7983871,0.5998259,0.22926232,0.68300134,10.133454,-0.34436515,-0.057572354,0.23120569
2023/4/21 14:56,17681,0.11671337,-0.004907429,0.588336,-0.003625457,0.8978182,9.765465,0.027228795,0.036857527,0.8010709,0.5968128,0.13339986,1.0601699,10.123883,-0.21608722,0.03283304,0.2483094
2023/4/21 14:56,17720,0.11116432,0.8646825,-0.38952255,-0.011304364,0.89533037,9.765686,0.026746588,0.03705616,0.80255455,0.59482574,0.12263216,1.7986549,9.239286,-0.03283304,0.04382829,0.25563958
2023/4/21 14:56,17760,0.29449522,1.0642912,-0.26570797,0.020541063,0.93139964,9.762299,0.029149126,0.037572123,0.8025163,0.59473205,0.38958144,1.9746768,9.506236,-0.1281252,-0.07345438,0.22265382
2023/4/21 14:56,17801,0.5653182,0.9564705,-0.009332657,0.08311095,0.97824913,9.757382,0.03313304,0.03760539,0.80257446,0.59444284,0.6936195,1.9076779,9.62483,0.001374406,-0.00503949,0.26907822
2023/4/21 14:56,17840,0.5915085,0.5240073,0.07528591,0.12430478,1.0397358,9.750584,0.036601014,0.038973745,0.80390644,0.59234774,0.6541379,1.4491532,9.758828,0.05635066,0.065818794,0.32527617
2023/4/21 14:56,17880,0.13905129,0.2280258,0.17884922,0.16393058,1.0693903,9.746791,0.038690303,0.03929076,0.80606365,0.5892543,0.24720849,1.282852,9.873684,-0.009620844,-0.082006246,0.30572906
2023/4/21 14:56,17921,-0.17252126,0.025383234,0.21979523,0.20015655,1.0866982,9.744199,0.040804442,0.038975976,0.808989,0.5851092,-0.02213361,1.1116157,9.835399,0.106440134,-0.03802524,0.28496024
2023/4/21 14:56,17960,-0.1766558,0.25526285,-0.52193546,0.20013426,1.1672125,9.734883,0.042684276,0.041950002,0.81137055,0.58146036,0.017347964,1.5149559,8.910124,0.21394925,0.018172706,0.273965
2023/4/21 14:56,18001,-0.30629826,0.63801193,-0.9666958,0.1825142,1.2605964,9.723578,0.044933856,0.047079086,0.8131358,0.57842433,-0.19815563,1.905285,8.66112,0.041690327,0.09758285,0.33016294
2023/4/21 14:56,18040,-0.4110376,0.6865705,-0.41684818,0.118675426,1.3071837,9.718414,0.043439906,0.051105354,0.81553286,0.57481074,-0.30822545,2.0285153,9.247662,-0.004734066,0.1537808,0.4071297
2023/4/21 14:56,18080,-0.26247883,0.83432686,-0.23985481,0.06684249,1.3645653,9.711019,0.042663388,0.055278305,0.81858474,0.57012564,-0.15628123,2.174627,9.305089,-0.057266932,0.093917765,0.44744563
2023/4/21 14:56,18120,0.08985768,0.9105036,0.48549747,0.052915875,1.3785175,9.709134,0.042199593,0.056490272,0.8214597,0.5658905,0.25438696,2.264358,10.21137,-0.12690352,0.07437065,0.41323817
2023/4/21 14:56,18160,0.3230877,0.98027396,0.8680973,0.075723134,1.4137979,9.703908,0.043958716,0.057498064,0.82360804,0.56252235,0.3859922,2.3863919,10.481909,0.002596101,0.038941514,0.34115818
2023/4/21 14:56,18200,0.085945256,1.2795448,0.89728737,0.08191096,1.4936929,9.691881,0.04631655,0.060879964,0.82539505,0.5593491,0.15867405,2.7827032,10.56805,0.09422319,0.12568182,0.5121954
2023/4/21 14:56,18241,-0.6344628,-0.040777326,1.8678818,0.05966048,1.5298413,9.686403,0.046095237,0.06361025,0.8298202,0.5524739,-0.6337989,1.4479568,11.724382,-0.09880454,0.08903099,0.53052086
2023/4/21 14:56,18280,-0.72650355,-0.2279712,1.2896585,0.074308775,1.529433,9.686367,0.045640294,0.06320614,0.83449143,0.54547775,-0.6625128,1.3055838,10.857732,0.1797418,-0.03802524,0.39979953
2023/4/21 14:56,18320,-0.16716813,-0.16137815,0.40997887,0.16080806,1.6068131,9.67278,0.050364077,0.06481685,0.83864534,0.53845733,0.064008005,1.4635102,10.085598,0.2005106,-0.290916,0.43889377
2023/4/21 14:56,18360,-0.026076555,-0.41703296,-0.24981785,0.348347,1.708523,9.650388,0.061770197,0.06443284,0.8421907,0.53174025,0.32138598,1.2360425,9.2895355,0.36666107,-0.46317494,0.40957308
2023/4/21 14:56,18400,0.1646297,-0.9750011,-0.78664494,0.49229413,1.8402818,9.6198435,0.07121523,0.06672976,0.8450487,0.5257073,0.734447,1.1247762,8.748459,0.38742986,-0.16141638,0.39124766
2023/4/21 14:56,18441,0.1833325,-1.0271463,-0.9570408,0.5261349,1.9558843,9.595212,0.07528963,0.07149711,0.84872216,0.51854634,0.58953166,0.88414794,8.747262,0.21517095,0.10246963,0.39857784
2023/4/21 14:56,18480,-0.4302289,-1.4207733,-0.4834547,0.515986,1.954026,9.596141,0.07421892,0.07228082,0.85285974,0.5117591,-0.018544376,0.44012982,9.330214,-0.069483876,0.1281252,0.45844087
2023/4/21 14:56,18520,-0.7835412,-1.5872023,-0.049747467,0.50511694,1.8990518,9.60775,0.07154383,0.07087031,0.8583392,0.50310314,-0.26515466,0.35264224,9.579217,-0.056045234,0.07925743,0.44744563
2023/4/21 14:56,18560,-0.61704046,-1.3138876,-0.07947445,0.5081824,1.8593673,9.615348,0.0700803,0.06958816,0.86252236,0.4962876,-0.071186475,0.57293147,9.589985,-0.06215371,0.012064233,0.37414396
2023/4/21 14:56,18601,-0.51633716,-1.1536074,-0.2381506,0.52554315,1.8105869,9.623719,0.06912368,0.06744488,0.8661306,0.49039876,-0.06520442,0.75613195,9.373434,-0.11346488,0.038941514,0.34604496
2023/4/21 14:56,18640,-0.7816037,-0.8442702,-0.21534729,0.52175957,1.7387291,9.637167,0.06682102,0.06516801,0.87020546,0.483767,-0.28429723,0.90807617,9.438041,-0.115908265,0.07437065,0.49020493
2023/4/21 14:56,18681,-0.9473778,-0.7586736,-0.3747816,0.5261985,1.6810116,9.647161,0.06464929,0.06286642,0.87590253,0.47398633,-0.42083767,0.8961121,9.271589,-0.11102149,0.03283304,0.57205844
2023/4/21 14:56,18720,-0.9849098,-0.60231924,-0.497056,0.56587374,1.6149715,9.656192,0.0640745,0.059713457,0.88192946,0.46317294,-0.3871886,1.0314561,9.138788,-0.12568182,-0.06490252,0.5989357
2023/4/21 14:56,18760,-0.8160435,-0.5365453,-0.26455212,0.5799864,1.5217576,9.670485,0.061696623,0.056000695,0.8886387,0.45097533,-0.18020946,0.9738788,9.520593,-0.15011571,-0.035581853,0.66735065
2023/4/21 14:56,18800,-0.5549991,-0.41167355,0.07823467,0.58279306,1.4343739,9.683661,0.058915615,0.05291123,0.8962664,0.43638957,0.08554341,1.0386345,9.676275,-0.016951011,-0.033138465,0.6563554
2023/4/21 14:56,18841,-0.40589774,-0.28632736,-0.068920135,0.5994621,1.38667,9.68959,0.057914175,0.051130146,0.90226364,0.42420748,0.14910276,1.0446166,9.575627,-0.08292252,0.003512372,0.653912
2023/4/21 14:56,18880,-0.41028255,-0.41397095,0.42214394,0.58135444,1.2942522,9.703469,0.05419283,0.048206568,0.91002464,0.4081598,0.17183457,0.88295156,10.115508,-0.07437065,0.081700824,0.7846333
2023/4/21 14:56,18920,-0.536127,-0.3740908,0.14526844,0.5607703,1.2419845,9.711508,0.051310375,0.047096893,0.9172322,0.39221698,-0.010169496,0.80757767,9.817452,-0.027946262,0.0645971,0.8970292
2023/4/21 14:56,18960,-0.68494207,-0.5299281,0.17424583,0.54246306,1.1538233,9.723415,0.04777948,0.04428202,0.92524457,0.3737361,-0.16944176,0.6291628,9.92169,-0.13789877,0.058488626,1.0240854
2023/4/21 14:56,19001,-0.7231723,-0.30442357,-0.12867069,0.5051711,1.0651315,9.735537,0.043241244,0.041904032,0.93481576,0.34999105,-0.2687439,0.8327023,9.467951,0.001374406,0.09758285,1.1169342
2023/4/21 14:56,19040,-0.6900553,-0.16312718,-0.46368217,0.4650411,1.0251064,9.741832,0.03960301,0.041670535,0.94315064,0.32735616,-0.23763719,0.8446664,9.309875,-0.063375406,0.14767233,1.2586508
2023/4/21 14:56,19080,-0.6762495,-0.3311237,-0.3253727,0.40237886,0.9554571,9.751697,0.03417167,0.0404248,0.953056,0.29813147,-0.3022434,0.5848956,9.366256,-0.081700824,0.1977618,1.4272447
2023/4/21 14:56,19120,-0.7814456,-0.5813904,-0.060702324,0.31653482,0.86119753,9.763633,0.02738503,0.037991032,0.9620863,0.2686944,-0.53330034,0.18634106,9.665508,-0.15866758,0.25762483,1.5579659
2023/4/21 14:56,19161,-0.6650195,-0.77636987,0.2677536,0.22968298,0.7042087,9.778637,0.019715747,0.03224299,0.9721594,0.23125264,-0.41111684,-0.12981063,9.997064,-0.2405211,0.15133741,1.665475
2023/4/21 14:56,19200,-0.27867293,-0.8067759,0.57904243,0.17936203,0.53470105,9.79042,0.014363196,0.024924658,0.9798323,0.19774011,-0.048454657,-0.2757728,10.334601,-0.23074755,0.1757713,1.6544797
2023/4/21 14:56,19240,0.12144306,-0.47163263,0.3067627,0.13456944,0.43370077,9.796131,0.010674061,0.020836014,0.98579687,0.16630228,0.24361925,-0.020787647,9.991081,0.028251685,0.1757713,1.601947
2023/4/21 14:56,19281,0.2606212,-0.24088031,-0.02306652,0.107163794,0.4181265,9.797147,0.008248245,0.020409161,0.99090457,0.1327537,0.42068812,0.20189442,9.667901,0.017256435,0.17088452,1.5775131
2023/4/21 14:56,19320,0.41334456,-0.27819625,-0.072927475,0.08492975,0.39345947,9.798386,0.00638669,0.019508362,0.9944088,0.10358476,0.5093721,0.0797109,9.799506,-0.03771982,0.21364383,1.5909517
2023/4/21 14:56,19360,0.5552073,-0.31489313,0.18569756,0.054836556,0.35669634,9.800008,0.004096657,0.017941464,0.9972441,0.071871534,0.59312093,0.050997034,9.950403,0.013591352,0.2197523,1.51765
2023/4/21 14:56,19401,0.65661895,-0.045564473,0.012858391,0.023351328,0.35345697,9.800251,0.002033002,0.017948752,0.9987413,0.046791952,0.6326025,0.32512477,9.744472,0.029473381,0.29183227,1.3405043
2023/4/21 14:56,19440,0.66340137,-0.036441475,0.042834282,-0.02722618,0.36952844,9.799647,-9.83E-04,0.018869553,0.9995907,0.021481901,0.625424,0.33708888,9.823434,0.066124216,0.25029466,1.2623159
2023/4/21 14:56,19480,0.63361394,-0.042303413,-0.06243229,-0.057948478,0.4029595,9.798196,0.002955322,-0.020549627,-0.99978447,6.53E-06,0.5596214,0.36221352,9.733704,0.09544489,0.2881672,1.2207782
2023/4/21 14:56,19521,0.64105475,0.045680463,0.16608906,-0.10617053,0.43528548,9.79641,0.006093432,-0.022309175,-0.9994745,0.022713237,0.5691927,0.48918268,9.920493,0.084449634,0.23929942,1.093722
2023/4/21 14:56,19560,0.77949464,0.27771774,-0.1164093,-0.114117816,0.49831113,9.793316,0.006813771,-0.025167316,-0.9988892,0.0392498,0.70692956,0.8147561,9.592378,0.14675605,0.17210622,0.93001497
2023/4/21 14:56,19600,1.0041988,0.38656926,-0.29796696,-0.09742634,0.59405535,9.788156,0.006679341,-0.029411126,-0.9981365,0.053045392,0.88758767,1.0003494,9.433254,0.1577513,0.16966283,0.82739264
2023/4/21 14:56,19640,0.88105977,0.4012584,-0.37777138,-0.06805298,0.67769825,9.7829685,0.005772072,-0.03426499,-0.9971669,0.06671482,0.7440183,1.0517951,9.302696,0.106440134,0.13912046,0.7430957
2023/4/21 14:56,19680,0.70324594,0.24011755,-0.09018421,-0.053643603,0.7151519,9.780392,0.005564247,-0.03616398,-0.9963079,0.07766404,0.6876374,0.9176475,9.720543,-0.013285928,0.16355436,0.67468077
2023/4/21 14:56,19720,0.66275215,0.27076143,0.12582111,-0.05140103,0.72293705,9.779831,0.005859916,-0.03651061,-0.99543506,0.08798655,0.6014958,1.0230812,9.817452,-0.03771982,0.14767233,0.49997848
2023/4/21 14:56,19760,0.60430866,0.5008933,-0.107313156,-0.04377713,0.73280394,9.779134,0.005763316,-0.037009437,-0.99480975,0.094608046,0.54646087,1.3151551,9.560074,-0.04871507,0.09636115,0.37047887
2023/4/21 14:56,19801,0.5643094,0.7315953,-0.46853828,-0.020421695,0.76105064,9.777054,0.005080345,-0.038380057,-0.9943116,0.09922516,0.55722857,1.5197415,9.1974125,-0.08536591,0.036498122,0.273965
2023/4/21 14:56,19840,0.7118387,0.76263756,-0.28382874,0.020990742,0.76757306,9.776543,0.002951812,-0.039068695,-0.99396193,0.102491744,0.78948194,1.5364913,9.423683,-0.12690352,-0.008704574,0.17989452
2023/4/21 14:56,19880,0.75059617,0.8619658,-0.14339256,0.0853647,0.80813503,9.772923,-4.69E-04,-0.041999117,-0.993817,0.10277975,0.8516953,1.6849958,9.441629,0.050242186,-0.039246935,0.09926268
2023/4/21 14:56,19921,0.65122163,0.8187402,-0.21463966,0.17041445,0.87787294,9.765792,-0.004077352,-0.04545968,-0.99373674,0.10200037,0.81460655,1.6993527,9.483504,-0.07559235,-0.09910997,0.012522369
2023/4/21 14:56,19960,0.32025012,0.93838954,-0.0587492,0.2371339,0.90708673,9.761728,-0.007402613,-0.047281656,-0.9938243,0.10011425,0.54646087,1.9220347,9.48829,-0.030389652,-0.05635066,-0.049784053
2023/4/21 14:56,20001,0.09701502,1.1656682,-0.5015316,0.25575107,1.0126956,9.750868,-0.007836947,-0.05275113,-0.99359953,0.0995787,0.28429723,2.1806092,9.082557,0.052685577,-0.011147963,-0.033902023
2023/4/21 14:56,20040,-0.1619279,1.1013622,0.08941841,0.2752396,1.0692916,9.744292,-0.008541668,-0.055734824,-0.9934349,0.099537835,0.109471634,2.1518953,9.835399,-0.13423368,-0.10888352,-0.07788303
2023/4/21 14:56,20080,-0.275803,1.0723608,0.5209398,0.29895186,1.1000217,9.740173,-0.009628722,-0.057416778,-0.9933952,0.09887662,0.01375873,2.1841984,10.126276,-0.026724568,-0.11010522,-0.14263284
2023/4/21 14:56,20120,-0.21437898,1.1679744,0.40561867,0.3029633,1.1950238,9.72885,-0.009362471,-0.062282078,-0.9931197,0.0987246,0.09032906,2.3624637,10.079616,0.09666658,-0.052685577,-0.072996244
2023/4/21 14:56,20160,-0.094088584,0.9939345,0.43066406,0.3287994,1.3230308,9.711431,-0.009823496,-0.06814929,-0.99276054,0.09841594,0.2161018,2.4020948,10.0700445,0.14431266,-0.17363334,-0.16462334
2023/4/21 14:56,20200,0.24658826,0.6532599,0.4366045,0.39504752,1.4423834,9.691947,-0.01306418,-0.07534928,-0.9925136,0.0952291,0.7416255,1.931606,10.210175,0.13209572,-0.19073705,-0.1524064
2023/4/21 14:56,20241,0.530108,-0.45735788,1.0572996,0.49183324,1.4751766,9.68258,-0.018170789,-0.077431746,-0.99267864,0.09090277,1.0313065,0.8757731,10.752448,0.07956286,-0.25548688,-0.14385453
2023/4/21 14:56,20280,-0.20782703,-1.0527917,0.16001606,0.5650389,1.4257206,9.685991,-0.0223933,-0.07516914,-0.9930797,0.08741137,0.18978074,0.33230326,9.805488,-0.042606596,0.071927264,-0.06566608
2023/4/21 14:56,20320,-1.099612,-0.9448564,0.2164917,0.45143002,1.3491138,9.702911,-0.016895317,-0.0707372,-0.9934533,0.088098146,-0.7332506,0.4124628,9.995867,-0.15866758,0.3736858,0.02351762
2023/4/21 14:56,20360,-1.1380476,-0.78673923,0.42992783,0.3233938,1.2906235,9.715971,-0.010559487,-0.06717025,-0.9936846,0.08926117,-0.7559824,0.53823555,10.166954,-0.056045234,0.08292252,-0.029015245
2023/4/21 14:56,20401,-0.618248,-0.7365323,-0.16135979,0.31362304,1.2770286,9.718087,-0.010125721,-0.066429704,-0.9937411,0.0892369,-0.1274178,0.52866423,9.48829,0.023364907,-0.029473381,0.011300675
2023/4/21 14:56,20440,0.048152328,-0.89946985,-0.4077263,0.33077836,1.2791287,9.717243,-0.010936979,-0.06662508,-0.9936489,0.090018414,0.42801616,0.36460635,9.435647,0.001374406,-0.07956286,0.10659285
2023/4/21 14:56,20480,0.40729588,-1.1787095,-0.06336975,0.38722372,1.2703307,9.716311,-0.013734869,-0.06646317,-0.9934669,0.091746695,0.78349984,0.101246305,9.678668,0.06123744,-0.13331741,0.08826743
2023/4/21 14:56,20520,0.33078238,-1.2081472,-0.3173685,0.4205442,1.2979919,9.711269,-0.015246249,-0.0682716,-0.9931486,0.09360764,0.7559824,0.1000499,9.476325,0.11743539,-0.017256435,0.08460235
2023/4/21 14:56,20561,0.13108814,-1.2533171,-0.3101759,0.43360406,1.3116876,9.708854,-0.015676046,-0.068851046,-0.9929683,0.09501438,0.5249255,0.080907315,9.493075,0.011147963,-0.019699825,0.07482879
2023/4/21 14:56,20600,-0.14573878,-1.0610063,-0.26890373,0.42876628,1.3055857,9.709891,-0.015306804,-0.06854941,-0.992781,0.09722466,0.17901304,0.27008986,9.461968,0.057572354,0.06704049,0.12125318
2023/4/21 14:56,20641,-0.3999281,-1.1185806,-0.19859791,0.41097286,1.3105532,9.709991,-0.014159765,-0.06875835,-0.99247146,0.1003605,0.001794617,0.19471595,9.555288,-0.008399149,-0.008704574,0.1163664
2023/4/21 14:56,20680,-0.24828036,-1.0293505,-0.054327965,0.41932237,1.2743833,9.714449,-0.01465318,-0.06697968,-0.9924102,0.10208357,0.20174485,0.2856432,9.690633,0.03191677,-0.030695075,0.067498624
2023/4/21 14:56,20720,-0.02316624,-0.6468331,-0.45411968,0.43411475,1.2545232,9.716383,-0.01538995,-0.06607179,-0.9922749,0.1038663,0.44117668,0.6387341,9.271589,0.10155336,-0.046577103,0.09071082
2023/4/21 14:56,20760,0.010015249,-0.4184432,-0.6321964,0.4565853,1.2389172,9.717356,-0.016492106,-0.065427534,-0.9921033,0.10572763,0.45673,0.84347,9.056086,-0.04382829,-0.03191677,0.10659285
2023/4/21 14:56,20800,0.015585929,-0.34858847,-0.23218632,0.47420117,1.1772422,9.724177,-0.017543638,-0.062427342,-0.991977,0.10852048,0.45553362,0.8003992,9.528968,-0.16111097,-0.04902049,0.13102673
2023/4/21 14:56,20840,-0.27715766,-0.3029045,0.049955368,0.4868438,1.0779021,9.735065,-0.018539794,-0.057498563,-0.9918839,0.11187762,0.15029918,0.8135597,9.762417,-0.18310146,-0.003817795,0.11514471
2023/4/21 14:56,20881,-0.44822106,-0.16155529,0.37310886,0.45673794,1.0062875,9.744186,-0.017245397,-0.053734303,-0.9917513,0.11508491,0.024526432,0.83389866,10.090384,-0.081700824,-0.018478129,0.036956258
2023/4/21 14:56,20920,-0.16745126,-0.34478796,0.2789755,0.43036646,0.98769975,9.747289,-0.01586258,-0.052678376,-0.9914909,0.11797965,0.2783152,0.606431,9.944422,0.068567604,0.07559235,0.027182704
2023/4/21 14:56,20960,0.23673359,-0.5968442,-0.019744873,0.38692647,0.98575234,9.749306,-0.013601848,-0.05233286,-0.9913853,0.11929575,0.625424,0.38135612,9.760024,0.11132691,0.16599774,0.07116371
2023/4/21 14:56,21000,0.2490631,-0.66064507,-0.15806198,0.3509221,1.016416,9.7475195,-0.011547044,-0.053679436,-0.991244,0.12008528,0.625424,0.38494533,9.549307,0.23227467,0.10613471,0.06872032
2023/4/21 14:56,21040,0.5101235,-0.7478088,-0.20299053,0.35503808,1.0239826,9.746578,-0.01170022,-0.0540916,-0.99119955,0.12025253,0.8552846,0.2222334,9.57802,-0.004734066,0.031611346,0.038177952
2023/4/21 14:56,21080,0.45484093,-0.75416267,0.23526192,0.38583013,0.9383482,9.754026,-0.013880685,-0.049903974,-0.9916166,0.11837821,0.75000036,0.21864417,9.980313,-0.058488626,0.025502874,0.008857286
2023/4/21 14:56,21120,0.09172997,-0.43536294,0.14069653,0.38572395,0.89096576,9.758472,-0.014174293,-0.04749178,-0.9917638,0.118102476,0.4639085,0.4915755,9.791131,-0.013285928,0.036498122,0.028404398
2023/4/21 14:56,21160,0.21049732,-0.14621842,-0.23138714,0.39197516,0.8676934,9.76032,-0.01435547,-0.046494927,-0.9917956,0.11820996,0.62781686,0.8003992,9.325428,-0.023059484,-0.020921519,-0.033902023
2023/4/21 14:56,21200,0.11928901,0.30250204,-0.6181965,0.41474015,0.8586929,9.760176,-0.015920116,-0.046001103,-0.992013,0.11636461,0.4962116,1.2097214,9.106484,-0.09025268,0.026724568,-0.092543356
2023/4/21 14:56,21241,0.005084515,0.5916272,-0.32611942,0.38450766,0.8499431,9.762178,-0.014474683,-0.04536391,-0.99215585,0.11558296,0.34411782,1.4300107,9.4200945,-0.15622419,0.10124794,-0.06933116
2023/4/21 14:56,21280,-0.12940237,0.50080425,0.16196632,0.35049915,0.81422365,9.766503,-0.012984425,-0.04333992,-0.9923305,0.11503577,0.20294127,1.2924234,9.849755,-0.21608722,0.024281178,-0.06322269
2023/4/21 14:56,21320,-0.14048323,0.43498588,0.4087019,0.3204479,0.774968,9.770728,-0.011677672,-0.041172247,-0.9924022,0.11535312,0.17901304,1.1965609,10.065259,-0.09513946,0.09147438,0.002748813
2023/4/21 14:56,21361,-0.06574063,0.4183315,0.11315918,0.27461195,0.7923832,9.770727,-0.009145323,-0.041808356,-0.9921057,0.11787559,0.20772691,1.2013465,9.780363,0.012369657,0.06826218,0.065055236
2023/4/21 14:56,21400,-0.08201197,0.34255576,-0.22999477,0.27062163,0.8141778,9.769047,-0.008716233,-0.042910255,-0.9917968,0.12009087,0.21251257,1.1582757,9.410522,-0.008399149,-0.029473381,0.09071082
2023/4/21 14:56,21440,-0.12623374,0.31109077,-0.5259266,0.27967384,0.84612334,9.766076,-0.008835327,-0.044616487,-0.99132806,0.12328828,0.1381855,1.1427224,9.080164,0.044133715,-0.007482879,0.15301724
2023/4/21 14:56,21480,-0.18534295,0.36831003,-0.68688583,0.2613804,0.89088637,9.762602,-0.007395407,-0.046809845,-0.9906164,0.1281927,0.07716853,1.2948161,8.904141,0.04291202,0.05971032,0.16645588
2023/4/21 14:56,21521,-0.15763624,0.564838,-0.6667347,0.23862903,0.93502134,9.759056,-0.005728889,-0.04892642,-0.9899231,0.1327613,0.08673982,1.5077773,9.009426,-0.010842538,0.038941514,0.117588095
2023/4/21 14:56,21560,-0.05786763,0.57984984,-0.04053116,0.21664171,0.97083634,9.756072,-0.003954641,-0.050835397,-0.9893608,0.1362546,0.15628123,1.5496517,9.588788,0.002596101,0.07925743,0.09804098
2023/4/21 14:56,21600,0.09205298,0.7918345,0.0584774,0.16853581,1.0411541,9.749768,-0.001131112,-0.053841345,-0.98885185,0.1388233,0.21729821,1.9268204,9.568449,0.10888352,0.15011571,0.07727218
2023/4/21 14:56,21640,0.06563164,1.075259,-0.036836624,0.13744889,1.1441022,9.738712,0.001366641,-0.05883858,-0.9881075,0.14205529,0.19695921,2.2093232,9.561271,-0.045049984,0.051158458,0.12125318
2023/4/21 14:56,21681,-0.010156058,1.009044,0.9036732,0.11419051,1.176336,9.735172,0.00303067,-0.06029235,-0.9874117,0.1461979,0.054436713,2.1530917,10.630264,-0.030389652,0.1525591,0.16401249
2023/4/21 14:56,21720,-0.22750546,0.86823833,1.2513332,0.051846825,1.2647799,9.724609,0.007640773,-0.06496432,-0.9862531,0.1517436,-0.20174485,2.1590738,10.862517,0.18829367,0.11102149,0.17500775
2023/4/21 14:56,21760,-0.14003713,0.8204814,0.95637417,0.014904109,1.3730689,9.710039,0.010365146,-0.069414616,-0.98493844,0.15802045,-0.15747765,1.9627128,10.8015,0.001374406,0.071927264,0.2043284
2023/4/21 14:56,21801,-0.09981027,-0.35310733,1.9691229,-0.003705424,1.362306,9.711565,0.011533315,-0.06866566,-0.98423815,0.16256459,0.010169496,0.92482597,11.711222,0.11132691,-0.051463883,0.13835691
2023/4/21 14:56,21840,0.12228435,-0.54660684,0.42193127,0.057929084,1.4685386,9.695897,0.009453738,-0.07454829,-0.98353636,0.16434523,0.18858433,0.9379865,9.953993,0.3397838,-0.19073705,0.030847786
2023/4/21 14:56,21881,0.00123404,-0.17321253,-0.46663284,0.11384794,1.5490961,9.6828575,0.007390141,-0.079101585,-0.98305094,0.16522443,0.002991028,1.5005989,9.226126,0.16996825,-0.030695075,0.089489125
2023/4/21 14:56,21920,-0.62512916,0.01868248,-0.7588873,0.10533166,1.6282237,9.669963,0.008823804,-0.083013594,-0.98206055,0.1690799,-0.56799626,1.641925,8.986694,0.16508147,0.06215371,0.21410197
2023/4/21 14:56,21960,-0.9101964,-0.2379657,-0.41241264,0.12041377,1.6510875,9.665909,0.008740072,-0.084258,-0.9809849,0.17462167,-0.77153575,1.3857434,9.415308,0.018478129,-0.13087402,0.23853585
2023/4/21 14:56,22001,-0.48459458,-0.53782177,-0.5286541,0.18875383,1.6702552,9.661522,0.005505548,-0.08617382,-0.9799055,0.17980255,-0.15747765,1.1367403,9.083753,0.13453911,-0.17729841,0.2055501
2023/4/21 14:56,22040,-0.002334803,-0.7566526,-0.795661,0.26522288,1.7311366,9.649001,0.003040369,-0.08960274,-0.9788045,0.18412973,0.36924243,0.92482597,8.922088,0.1797418,-0.13820419,0.26052636
2023/4/21 14:56,22080,0.2587487,-1.2138611,-0.47377682,0.33674222,1.7610295,9.641356,1.88E-04,-0.09180177,-0.9776711,0.18902822,0.67088765,0.47841498,9.28116,0.017256435,-0.1565296,0.24097924
2023/4/21 14:56,22121,0.8020967,-1.4059964,-0.13272858,0.42280903,1.7417668,9.641466,-0.003991311,-0.091684856,-0.976978,0.19259274,1.2671491,0.389731,9.540932,0.039246935,-0.15164283,0.111479625
2023/4/21 14:56,22160,0.6939706,-1.2374885,-0.40210533,0.46393368,1.7536446,9.637422,-0.005913411,-0.09270014,-0.9768207,0.19285506,1.032503,0.56934226,9.312267,0.046577103,0.052380152,0.022295926
2023/4/21 14:56,22200,0.07421517,-1.4423587,0.16863823,0.41194683,1.7265317,9.644675,-0.003453365,-0.090810016,-0.97675437,0.19414549,0.45673,0.26769704,9.908529,-0.11957335,0.1525591,0.043064732
2023/4/21 14:56,22241,0.08117923,-1.4484771,0.33106613,0.3960325,1.6514009,9.65849,-0.003418633,-0.08684699,-0.9771363,0.19403742,0.5129613,0.27008986,10.023384,-0.14034216,-0.03436016,-0.07177455
2023/4/21 14:56,22280,0.13279846,-0.96812373,-0.29332924,0.3923751,1.6245091,9.663198,-0.003902773,-0.08540748,-0.977715,0.19173858,0.51056856,0.72263247,9.34472,0.05390727,0.065818794,-0.13774605
2023/4/21 14:56,22320,-0.10056572,-0.8290856,-0.6517582,0.33652115,1.6374665,9.663117,-9.21E-04,-0.08554104,-0.9780407,0.19004825,0.15628123,0.7716853,9.120842,-0.042606596,0.14522894,-0.057114217
2023/4/21 14:56,22361,-0.45739388,-1.1474586,0.07114315,0.3021499,1.5760363,9.674461,1.18E-04,-0.081636034,-0.97844154,0.18970414,-0.16824535,0.39451665,9.9061365,-0.16844113,0.002290677,-0.015576605
2023/4/21 14:56,22400,-0.2120676,-0.8832333,-0.24215412,0.29294264,1.5079337,9.685593,1.80E-05,-0.0785634,-0.97857016,0.19033715,0.13579269,0.69735825,9.309875,0.0917798,-0.022143213,0.044286426
2023/4/21 14:56,22440,-0.04771015,-0.5705457,-0.76177406,0.2988444,1.4809717,9.689571,-4.66E-04,-0.07726006,-0.9784838,0.19131175,0.26515466,0.92602235,8.912517,-0.10124794,-0.039246935,0.06139015
2023/4/21 14:56,22480,-0.10954879,-0.6283768,-0.14426899,0.32503918,1.329097,9.710728,-0.002948257,-0.07103564,-0.9789291,0.19142365,0.18738793,0.6351449,9.580413,-0.41278005,-0.04902049,0.02107423
2023/4/21 14:56,22521,-0.22853674,-0.8735743,0.8917723,0.31032363,1.1110214,9.738568,-0.004691291,-0.058729775,-0.979793,0.19113998,0.07597212,0.22701904,10.729567,-0.38712445,0.02183779,-0.007024744
2023/4/21 14:56,22560,-0.10474564,-0.42633528,0.68184376,0.293982,0.93843114,9.757219,-0.005589195,-0.04989072,-0.9803825,0.19060378,0.21251257,0.54900324,10.380065,-0.14522894,-0.025808297,-0.03634541
2023/4/21 14:56,22600,-0.01612842,0.12381655,-0.20277405,0.30497354,0.89315325,9.76113,-0.006617322,-0.04771898,-0.9806274,0.18986565,0.29506496,1.0577772,9.507432,-0.07925743,-0.03802524,-0.05955761
2023/4/21 14:56,22641,-0.003473014,0.26464766,-0.42797375,0.3099053,0.8744545,9.762668,-0.007143278,-0.046569023,-0.98073584,0.18957199,0.3333501,1.1259726,9.410522,-0.17332791,-0.012369657,-0.042453885
2023/4/21 14:56,22680,0.07340258,0.096287906,0.046286583,0.3237347,0.8054212,9.768156,-0.008426843,-0.04349279,-0.9808888,0.18945855,0.3752245,0.8602197,9.852148,-0.21120045,-0.033138465,-0.044897273
2023/4/21 14:56,22720,0.08476257,-0.09074873,0.4296093,0.33092397,0.7384526,9.773206,-0.009474781,-0.04019183,-0.98120683,0.18848877,0.41231325,0.62198436,10.307083,-0.12568182,-0.008704574,-0.09498675
2023/4/21 14:56,22761,0.1923931,0.07321119,0.2539482,0.33109474,0.71631145,9.774849,-0.00980954,-0.039053943,-0.98179126,0.1856461,0.5021936,0.8446664,10.0090275,0.039246935,0.058488626,-0.17439689
2023/4/21 14:56,22800,0.04469484,0.28663647,-0.2107687,0.31421638,0.77363783,9.771036,-0.008550988,-0.041745767,-0.9822705,0.18256205,0.32018957,1.0876875,9.513414,0.14431266,0.029167956,-0.17439689
2023/4/21 14:56,22840,0.041521072,0.15437716,-0.2261343,0.3143958,0.8544909,9.764291,-0.007933023,-0.045790385,-0.9825983,0.17983578,0.38479578,1.0206884,9.532557,0.15164283,-0.062459134,-0.17806198
2023/4/21 14:56,22881,0.16035113,0.07293606,-0.32813644,0.35176313,0.93333584,9.755795,-0.009234027,-0.050076235,-0.9829099,0.17690451,0.60747784,1.0793126,9.325428,0.22005773,-0.11987878,-0.16462334
2023/4/21 14:56,22920,0.23799172,0.28297472,-0.8320646,0.41959995,1.0445124,9.741833,-0.011596973,-0.055590983,-0.9832331,0.17328538,0.66131634,1.343869,8.823982,0.1797418,-0.11743539,-0.14507623
2023/4/21 14:56,22960,0.12526989,0.26237512,-0.6124277,0.4727234,1.1087989,9.732291,-0.01413771,-0.05992825,-0.9834894,0.17016843,0.54406804,1.3618152,9.117252,0.036803547,-0.13209572,-0.1279725
2023/4/21 14:56,23000,-0.14450365,0.3375609,-0.2924366,0.50997597,1.1521548,9.725371,-0.015768234,-0.06285253,-0.9836167,0.16822334,0.26994032,1.554587,9.23809,0.09666658,-0.08689302,-0.12308572
2023/4/21 14:56,23041,-0.3386312,0.68425834,-0.67150307,0.50242823,1.2390908,9.715072,-0.014651149,-0.06674259,-0.9834271,0.16793431,0.16585252,1.945963,8.88141,0.04535541,-0.024586603,-0.09009997
2023/4/21 14:56,23080,-0.18786526,0.73138356,-0.004378319,0.49014738,1.2960471,9.708265,-0.013518193,-0.0695235,-0.9831911,0.16828257,0.31540394,1.9842482,9.700204,-0.018172706,-0.012369657,-0.12552911
2023/4/21 14:56,23120,-0.06157714,0.76266575,0.52290535,0.48036793,1.3521461,9.701098,-0.012671812,-0.07225651,-0.9833065,0.16651337,0.4639085,2.1782165,10.023384,0.04291202,-0.0697893,-0.20127417
2023/4/21 14:56,23161,-0.023295224,1.0549417,0.37822723,0.48479298,1.4355829,9.688885,-0.012363582,-0.07649552,-0.9833813,0.16418536,0.4639085,2.4978077,10.098759,0.018478129,-0.020921519,-0.19027892
2023/4/21 14:56,23200,-0.042749584,0.992259,0.859457,0.47318256,1.5281364,9.675293,-0.011340653,-0.08042513,-0.98347044,0.16183026,0.3967599,2.4607189,10.550104,0.1357608,-0.035581853,-0.18294875
2023/4/21 14:56,23240,0.07585353,1.4384564,0.01242733,0.48807207,1.6861137,9.648274,-0.010774946,-0.089212276,-0.9829833,0.16021512,0.5632106,3.0364919,9.704989,0.22250111,-0.039246935,-0.14018944
2023/4/21 14:56,23281,0.25213793,0.14770198,1.5369606,0.4894411,1.7463769,9.637479,-0.010569754,-0.0921136,-0.98293984,0.15884776,0.70932233,1.7400308,11.532807,-0.07070557,-0.039246935,-0.05833591
2023/4/21 14:56,23320,0.371516,-1.0640613,1.4420462,0.5049187,1.7577318,9.634617,-0.011152865,-0.092988804,-0.9828315,0.15896858,0.81460655,0.69616187,10.959427,0.17852011,-0.00503949,0.017409148
2023/4/21 14:56,23360,0.2197398,-1.0746061,0.29576874,0.5103017,1.8265904,9.621515,-0.010839362,-0.096549384,-0.982457,0.15918213,0.6625128,0.90329057,9.627223,0.25426516,-0.013591352,-0.04367558
2023/4/21 14:56,23401,0.11836478,-0.43685377,-1.3338938,0.49074468,1.9249752,9.603334,-0.009152818,-0.10140244,-0.98216033,0.15809758,0.6361917,1.5161523,8.294869,0.21517095,0.09025268,-0.09009997
2023/4/21 14:56,23440,0.10237953,-0.3269632,-0.9321995,0.4697209,1.9627817,9.59673,-0.007968691,-0.10314757,-0.98227715,0.15629683,0.5919245,1.6371393,8.820393,-0.014507622,-0.017256435,-0.15484978
2023/4/21 14:56,23480,0.21712762,-0.8044946,0.007074356,0.46895808,1.937541,9.601895,-0.008416682,-0.10182698,-0.98284054,0.15357377,0.7236793,1.1116157,9.697811,-0.056045234,-0.014813046,-0.108425386
2023/4/21 14:56,23520,0.37361795,-1.1168661,0.06474018,0.4585485,1.9464501,9.600596,-0.007985304,-0.102186345,-0.9830558,0.15197204,0.8301599,0.8003992,9.617502,0.14064758,0.06826218,-0.088878274
2023/4/21 14:56,23561,0.10210124,-1.1897564,-0.6625099,0.4096942,1.9816215,9.595609,-0.005719569,-0.103628606,-0.9830806,0.15093331,0.45792642,0.82911307,8.941231,0.029473381,0.15744588,-0.055892523
2023/4/21 14:56,23601,-0.2630173,-1.3774865,-0.21839237,0.33536577,1.9268109,9.609647,-0.00205052,-0.100200586,-0.98351383,0.1505199,-0.05682954,0.4112664,9.648758,-0.27350685,0.20753536,-0.037567105
2023/4/21 14:56,23640,-0.566357,-2.1089005,1.0198803,0.26114282,1.7885568,9.638634,9.30E-04,-0.09173134,-0.98434204,0.15051654,-0.28310084,-0.35353956,10.764412,-0.27717194,0.15988927,-0.042453885
2023/4/21 14:56,23680,-0.26637378,-1.555367,-0.18191338,0.20302312,1.7450902,9.647996,0.003179001,-0.08988325,-0.9845887,0.14998686,-0.016151553,0.2868396,9.229715,0.08689302,0.07925743,-0.06322269
2023/4/21 14:56,23720,-0.03658028,-1.4169102,-0.72535896,0.16860098,1.7191243,9.653319,0.004680674,-0.088293776,-0.9847905,0.14956592,0.22447668,0.18753748,9.139984,-0.17821468,0.08414421,-0.040010497
2023/4/21 14:56,23761,0.3054018,-1.9159379,-0.050598145,0.13439211,1.6422701,9.667227,0.005795909,-0.08411312,-0.98518354,0.14934798,0.49980083,-0.33200413,9.58161,-0.05971032,0.063375406,-0.04734066
2023/4/21 14:56,23800,0.58196723,-1.9662749,-0.58593845,0.12247065,1.6087667,9.6730175,0.00601879,-0.08232356,-0.98555094,0.14790529,0.7595716,-0.3044867,9.0261755,-0.08292252,-0.033138465,-0.09132166
2023/4/21 14:56,23840,0.9211736,-1.8897254,-0.5157652,0.17831588,1.5238348,9.685892,0.002319708,-0.07843172,-0.98630244,0.14508815,1.0863415,-0.4278666,9.25125,-0.22219568,-0.20784079,-0.16951011
2023/4/21 14:56,23881,0.6528832,-1.666213,-0.046961784,0.23321496,1.4178874,9.700803,-0.001535094,-0.07344596,-0.98724276,0.14126228,0.7775178,-0.19082761,9.68824,-0.23441264,-0.03802524,-0.18417045
2023/4/21 14:56,23920,-0.08921805,-1.1734853,0.28329563,0.22657172,1.2878107,9.719085,-0.002197573,-0.067667596,-0.98796916,0.13904381,0.10468599,0.11201401,10.0293665,-0.3516953,-0.003817795,-0.074217945
2023/4/21 14:56,23960,-0.3640117,-0.78795516,0.34108543,0.23308031,1.1443387,9.736865,-0.00370161,-0.05953424,-0.9886142,0.13814445,-0.15029918,0.43654057,9.982706,-0.24540788,-0.05390727,-0.06566608
2023/4/21 14:56,24001,-0.38976,-0.1855489,-0.24438381,0.21821211,1.0456733,9.7483,-0.003649126,-0.05442198,-0.9889117,0.1381254,-0.07477571,0.90329057,9.573235,-0.18676655,-1.53E-04,-0.072996244
2023/4/21 14:56,24040,0.27984357,-0.3307873,0.4583912,0.21282175,0.9357923,9.75958,-0.004168231,-0.048811622,-0.9892442,0.13782558,0.6134599,0.56934226,10.340583,-0.25395975,-0.035581853,-0.004581355
2023/4/21 14:56,24080,0.60644084,-0.42425513,0.6782694,0.26442704,0.84616685,9.766497,-0.00746235,-0.04462673,-0.98958826,0.13663052,0.9139087,0.44730827,10.4051895,-0.031611346,-0.030695075,0.054059982
2023/4/21 14:56,24121,0.3862554,-0.29686528,-0.08491707,0.3022658,0.8320031,9.766616,-0.009490002,-0.044171255,-0.9896399,0.13627827,0.686441,0.5358427,9.68465,0.046577103,0.003512372,0.13469182
2023/4/21 14:56,24161,0.30577764,-0.14756995,-0.43872547,0.33509806,0.82851195,9.765842,-0.011088611,-0.04424583,-0.98935366,0.13819805,0.62901324,0.68778694,9.329018,0.051463883,0.015729317,0.15179555
2023/4/21 14:56,24200,0.09165114,-0.064495265,-0.6202135,0.33263,0.8437342,9.764624,-0.010516278,-0.04506921,-0.9888888,0.14126974,0.38001016,0.80757767,9.139984,0.023364907,0.11346488,0.14690876
2023/4/21 14:56,24240,0.10252759,-0.057388067,-0.12474346,0.29578537,0.82253534,9.767616,-0.008884544,-0.043717533,-0.98856294,0.14405951,0.42203408,0.71425754,9.742078,-0.115908265,0.09513946,0.11270132
