time(ms),acc.x,acc.y,acc.z,acclinear.x,acclinear.y,acclinear.z,gravity.x,gravity.y,gravity.z,gyroscope.x,gyroscope.y,gyroscope.z,RV.x,RV.y,RV.z,RV.cos,RV.heading
1,-0.16903064,0.5131445,9.577257,0.1682,-0.0071,-0.1982,-0.2685,0.4944,9.7904,-0.10925761,-0.0673348,-0.10681415,0.023622,-0.01833,-0.91252,0.407937,0
41,-0.20696437,0.49546567,10.194252,0.0535,-0.0017,0.3461,-0.2104,0.45279998,9.7939,-0.00127409,-0.23069762,-0.06595599,0.019179,-0.016757,-0.913719,0.405547,0
81,-0.21830331,0.5285057,9.871179,-0.13159999,-0.0058,0.1002,-0.1331,0.4667,9.7946,0.07916813,-0.03598869,0.016737707,0.015839,-0.01902,-0.914202,0.404501,0
121,0.002020706,0.5718982,9.860903,0.098699994,0.061199997,0.1017,-0.1281,0.49769998,9.793099,0.1131846,0.04202753,0.07258824,0.016262,-0.020558,-0.913902,0.405085,0
161,0.05761407,0.6797809,9.668514,0.2083,0.0793,-0.0815,-0.1495,0.5482,9.7901,0.13418092,0.15294321,0.07855727,0.018339,-0.022447,-0.913216,0.406442,0
201,0.071567476,0.63070935,10.0092945,0.2739,0.0257,0.1971,-0.2052,0.60179996,9.785999,0.17681931,0.12199851,0.053075463,0.022088,-0.023754999,-0.91246897,0.407857,0
242,0.006253655,0.74282503,9.6160145,0.22659999,-0.0022,-0.0027,-0.2462,0.6789,9.78,0.23474678,0.09848893,-4.89E-04,0.025626,-0.026473999,-0.911993,0.408546,0
281,0.006904878,0.81651855,9.156883,0.3215,0.021399999,-0.6627,-0.27249998,0.76299995,9.7731,0.11758283,-0.033894293,-0.06419321,0.028602,-0.029859,-0.911963,0.408181,0
321,-0.071634516,0.79437697,9.19586,0.2026,-7.00E-04,-0.5722,-0.26139998,0.79499996,9.7708,-0.004607669,-0.030089477,-0.09646435,0.02871,-0.031625,-0.912501,0.406836,0
361,-0.20919576,0.68763393,9.684507,0.0163,-0.0578,-0.1811,-0.25169998,0.78349996,9.771999,-0.08969247,-0.011972958,-0.07639306,0.027955,-0.03134,-0.913306,0.4051,0
401,-0.2977908,0.7968095,10.068748,-0.0361,0.051599998,0.2968,-0.2482,0.7525,9.7745,-0.014730579,-0.021066124,-0.05461135,0.027104,-0.030004,-0.913939,0.40383,0
442,-0.29084763,0.84310377,9.853241,-0.052199997,0.0603,0.13,-0.2419,0.7536,9.7746,0.054367006,-0.001343904,-0.019966567,0.026806,-0.030212,-0.914343,0.40292,0
481,-0.2240877,0.9270828,9.583377,0.016999999,0.1258,-0.1427,-0.2426,0.77629995,9.7727995,0.059376102,-0.007557276,0.002740167,0.027295,-0.031268,-0.91441697,0.402639,0
521,-0.16360058,0.8645941,9.528779,0.0887,0.098,-0.3375,-0.2358,0.79429996,9.7715,-0.017575465,-0.02576106,9.95E-04,0.027351,-0.032246,-0.914386,0.402629,0
561,-0.14580688,0.8757511,9.903434,0.1015,0.0574,0.1028,-0.22899999,0.7859,9.7724,-0.001082104,0.002426008,-0.002722714,0.026858,-0.031995,-0.914398,0.402655,0
601,-0.2774305,0.89282656,9.739565,-0.047,0.1085,0.015199999,-0.22749999,0.79359996,9.7718,0.05735152,0.011536626,0.018640116,0.026946,-0.032387,-0.9144,0.402611,0
641,-0.18805975,0.91288996,9.686327,0.024699999,0.085,-0.0514,-0.2307,0.8171,9.7698,0.06288421,0.004153884,0.034225907,0.027596,-0.033406,-0.914162,0.403025,0
681,-0.09518389,0.86436427,9.680486,0.13769999,0.023599999,-0.1281,-0.226,0.8393,9.768,0.04059636,-0.018832102,0.026651178,0.027855,-0.034525,-0.913872,0.40357,0
722,-0.0682539,0.992818,9.595395,0.1604,0.0946,-0.1169,-0.2193,0.8566,9.7667,0.04872959,-0.006981317,0.02316052,0.02792,-0.035458,-0.91363597,0.40401798,0
761,-0.078414895,1.0002687,9.608372,0.0808,0.1384,-0.19409999,-0.2181,0.87149996,9.7654,0.002094395,0.002094395,0.01675516,0.028185999,-0.036172,-0.913454,0.404348,0
801,-0.0589644,0.97548395,9.759408,0.18239999,0.1073,-0.0077,-0.2118,0.87329996,9.7653,0.011955505,-0.019792033,-0.00439823,0.027934,-0.036379,-0.913388,0.404498,0
841,-0.071529165,0.9362765,9.711073,0.1683,0.063599996,-0.0466,-0.2075,0.8778,9.764999,0.018727383,0.014154621,-0.006894051,0.027826,-0.036677,-0.91340697,0.404433,0
881,-0.17570567,0.97927636,9.588031,0.0524,0.0731,-0.1634,-0.2093,0.8878,9.7641,0.013578662,-0.006876597,-0.012426744,0.028112,-0.037117,-0.913472,0.404228,0
921,-0.06817728,0.9859035,9.717931,0.1193,0.0793,-0.0748,-0.2076,0.8915,9.7638,-0.00127409,0.003857178,-0.00561996,0.028097,-0.037331,-0.913544,0.404045,0
961,0.03182373,0.9840265,9.698058,0.2474,0.0969,-0.1138,-0.2082,0.8935,9.763599,-0.002391101,-0.010925761,-0.038798667,0.028158,-0.037418,-0.913647,0.403801,0
1001,-0.12877932,0.9236064,9.841079,0.087699994,-0.0027,0.0823,-0.20539999,0.8951,9.7635,0.027000243,0.01712168,-0.030874874,0.02803,-0.037573,-0.913962,0.403081,0
1041,-0.06988196,0.9781559,9.587715,0.16229999,0.0196,-0.1317,-0.2113,0.9119,9.7618,0.0652055,-0.009040806,-0.036494836,0.028631,-0.038255,-0.914168,0.402508,0
1081,-0.11434708,1.0203513,9.530963,0.081099994,0.057499997,-0.2769,-0.2086,0.9328,9.7599,0.009581857,0.008063421,-0.03499385,0.028908,-0.039312,-0.914434,0.401782,0
1121,-0.10895533,0.97480404,9.727776,0.111099996,0.006,-0.021599999,-0.2092,0.9353,9.7596,0.008412487,-0.010192723,-0.035168383,0.028958,-0.039439,-0.914705,0.401147,0
1161,-0.15586254,1.0006901,9.705998,0.0298,0.0423,-0.0901,-0.20629999,0.9382,9.759399,-0.005201081,0.003071779,-0.023404865,0.028855,-0.039653,-0.914986,0.400494,0
1202,-0.1385764,1.0706104,9.7600975,0.1078,0.1305,-0.0116,-0.2058,0.93829995,9.759399,0.009669124,0.015166911,-0.009145525,0.028818,-0.03968,-0.915149,0.40012,0
1241,-0.14921623,0.984649,9.763276,0.0622,0.054199997,0.0185,-0.2093,0.946,9.758599,0.049288098,-0.005899213,-0.006038839,0.029134,-0.039973,-0.915193,0.39996698,0
1281,-0.13343365,1.0567719,9.4077,0.0874,0.0717,-0.3128,-0.2051,0.9677,9.756599,0.038571775,-0.002042035,-0.004974188,0.029373,-0.041079,-0.915209,0.399802,0
1321,-0.15192647,1.0001922,9.659254,0.0681,0.0274,-0.175,-0.20539999,0.97279996,9.7561,-0.035342917,-0.005305801,7.16E-04,0.029491,-0.041314,-0.91522,0.399742,0
1361,-0.08301176,1.0793157,9.844268,0.1228,0.0786,0.0492,-0.2012,0.9608,9.757299,-0.018936822,0.001047198,0.006265732,0.029052,-0.040836,-0.91523397,0.399793,0
1401,-0.0587154,1.0449255,9.848721,0.1928,0.0915,0.0784,-0.2026,0.95769995,9.7576,0.030089477,-0.003961898,-0.009529498,0.029058,-0.040661,-0.915195,0.399899,0
1441,-0.1465443,1.0190297,9.631193,0.0598,0.036599997,-0.1064,-0.1971,0.9734,9.7562,0.045622908,0.004520403,1.05E-04,0.02911,-0.041513,-0.915252,0.399678,0
1482,-0.05146576,1.0309623,9.549053,0.1594,0.051099997,-0.252,-0.1986,0.98829997,9.7546,0.008499754,-0.00837758,-0.00408407,0.029487,-0.042183,-0.91521,0.399676,0
1521,-0.08117301,1.0153713,9.66454,0.110599995,-0.0017,-0.085099995,-0.189,0.99219996,9.754399,0.007714355,-0.027890362,-0.006422812,0.029112,-0.042564,-0.915279,0.399504,0
1561,-0.18037915,1.0397922,9.735265,0.024799999,0.057299998,-0.1147,-0.18169999,0.99189997,9.7546,-0.027384216,0.005864306,-0.01850049,0.028748,-0.042712,-0.915404,0.399228,0
1601,-0.11225933,1.0659847,9.801488,0.0927,0.053,0.0906,-0.181,0.98639995,9.755199,0.030281462,-0.006161012,-0.002670354,0.028593,-0.042476,-0.915525,0.398988,0
1641,-0.034926612,1.0677853,9.562719,0.148,0.079799995,-0.1925,-0.1774,0.9988,9.754,0.019163715,-0.010105456,-0.012915436,0.028675,-0.043134,-0.915543,0.398869,0
1681,-0.16036363,0.97830915,9.663171,0.0241,-0.0525,-0.1235,-0.17119999,1.0037,9.7536,-0.007714355,-1.92E-04,-0.012095132,0.028468,-0.0435,-0.915688,0.398513,0
1721,-0.13133633,1.0933266,9.708287,0.0442,0.068399996,-0.0453,-0.1717,1.0004,9.7539,-0.012967796,0.005078908,-0.006475172,0.028413,-0.043341,-0.915788,0.398304,0
1762,-0.028213272,1.070553,9.764339,0.1319,0.072299995,0.012999999,-0.17109999,0.99649996,9.7543,3.49E-05,-0.00153589,-0.01982694,0.028294,-0.043179,-0.915898,0.39807498,0
1801,-0.07198885,1.0312209,9.684996,0.12239999,0.02,-0.0356,-0.1714,0.99969995,9.754,0.035761796,0.013980087,-0.020437805,0.028356,-0.043336,-0.916074,0.397649,0
1841,-0.15139973,1.0250632,9.397452,0.046699997,0.0255,-0.36749998,-0.1742,1.0138999,9.7525,0.010698868,-0.00280998,-0.015707964,0.028753,-0.043957,-0.91621697,0.397223,0
1881,-0.083241604,1.0112534,9.637418,0.065,-0.031,-0.1814,-0.17279999,1.0116999,9.7527,-0.03806563,0.009302605,1.05E-04,0.028634,-0.043887,-0.916317,0.39701,0
1921,-0.020044256,1.035454,9.655547,0.1336,0.018099999,-0.0256,-0.17279999,1.0016999,9.753799,-0.02422517,-0.004939282,-0.008447394,0.028427,-0.04342,-0.916359,0.396978,0
1961,-0.22441332,1.1150659,9.385366,-0.0266,0.1413,-0.39,-0.16939999,0.98639995,9.7554,-0.0866905,0.035744343,0.001937316,0.027945,-0.042776998,-0.916511,0.396731,0
2002,0.20108421,0.9932394,9.718582,0.3344,0.0632,-0.1092,-0.1873,0.9468,9.759,-0.13838716,0.06888814,0.019163715,0.027992,-0.040548,-0.916467,0.397063,0
2041,-0.17966089,0.8778484,9.949096,0.067499995,0.0043,0.21,-0.2048,0.89779997,9.7633,-0.06895796,0.010053096,-0.016441,0.027817,-0.03789,-0.916541,0.397166,0
2081,-0.025656266,0.9147,9.831167,0.21069999,0.0609,0.1695,-0.22049999,0.8804,9.7645,0.07393215,0.17369516,0.059253927,0.028202,-0.036755,-0.916498,0.397347,0
2121,-0.31788293,1.0614836,9.864762,0.0072,0.1016,0.0674,-0.27199998,0.928,9.7588,0.20371483,0.022357667,0.08670796,0.031627,-0.037903998,-0.915916,0.398321,0
2161,-0.23133734,1.1446965,9.981102,0.070999995,0.0552,0.213,-0.2672,1.0136,9.7504,0.25720918,-0.11590732,0.19837412,0.033254,-0.041943,-0.914759,0.400437,0
2201,-0.20855412,1.2515354,9.629987,-0.0907,0.2096,-0.0422,-0.2034,1.1142,9.741,0.16025613,-0.09616764,0.1495049,0.032514,-0.047846,-0.91308,0.403654,0
2241,-0.17934486,1.2581818,10.012811,-0.1121,0.0289,0.2856,-0.16239999,1.1575999,9.7367,0.10250319,-0.049864057,0.040352013,0.031582,-0.050673,-0.9123,0.405145,0
2282,0.003591303,1.1251886,9.092507,0.33679998,-0.046699997,-0.3561,-0.1505,1.2039,9.731299,0.06195919,0.30017918,-0.038659044,0.03202,-0.053069,-0.911929,0.405638,0
2321,-0.38716155,1.4265133,9.417324,-0.109,0.2593,-0.35369998,-0.27339998,1.2018,9.7288,-0.15550883,0.20369738,-0.008342674,0.0377,-0.050434,-0.912008,0.40531,0
2361,-0.2556816,0.99147725,10.293553,0.0945,-0.1153,0.26729998,-0.32,1.1352,9.7354,-0.17116444,-0.14905111,0.06815511,0.038505,-0.046338,-0.912032,0.405669,0
2401,0.23633644,1.1284161,10.011719,0.4062,-0.0075,0.47,-0.2003,1.1352999,9.7386,0.3407232,-0.65400976,0.032934364,0.032984998,-0.048777,-0.911532,0.40699,0
2441,0.07113652,1.328418,9.616905,0.087,-0.059,-0.1532,0.0501,1.2652,9.7245,0.3318918,-0.46783552,-0.105260804,0.023946,-0.060103,-0.911666,0.405804,0
2481,-0.062191784,1.6015103,9.032423,-0.2778,0.20269999,-0.63379997,0.18949999,1.3957,9.7049,0.24378759,-0.083514005,-0.06304129,0.019988,-0.069174,-0.912227,0.403308,0
2521,0.15919527,1.8569907,9.049221,-0.085099995,0.3275,-0.60209996,0.19299999,1.4769,9.6928,0.07677703,0.091996305,0.008866273,0.021446,-0.073081,-0.912289,0.402402,0
2562,0.07682514,1.795498,9.153187,-0.1488,0.3152,-0.6008,0.15869999,1.4891,9.6916,-0.13657202,0.2223724,0.04680973,0.023334,-0.072939,-0.912105,0.402739,0
2601,0.45434287,1.6052164,9.879185,0.3886,0.1911,0.0637,0.0232,1.4171,9.7036,-0.21132447,0.50083965,0.031084314,0.02829,-0.066702,-0.911685,0.404449,0
2641,0.040643968,1.5292723,9.648997,0.2976,0.24419999,-0.0824,-0.17009999,1.3443999,9.7125,-0.19484855,0.62592745,-0.029356439,0.035861,-0.059252,-0.911566,0.405277,0
2681,-0.44748586,1.122306,10.0710945,0.104499996,-0.0287,0.1894,-0.45749998,1.2544999,9.7153,-0.32208306,0.9316742,0.100478604,0.047467,-0.049033,-0.911195,0.406282,0
2721,-1.25641,1.2252376,9.638529,-0.3885,-0.0042,-0.0849,-0.7784,1.1711999,9.7052,0.06613053,0.32033774,0.11136946,0.060858,-0.038265,-0.909536,0.40936,0
2761,-0.67373794,1.2164556,10.0958605,0.038,-0.057499997,0.5304,-0.77349997,1.2343,9.6978,0.38154644,-0.6139021,0.05518731,0.06204,-0.04121,-0.908639,0.410885,0
2802,-0.6703573,1.3781313,9.734336,-0.1665,-0.0846,0.0749,-0.5689,1.3791,9.6925,0.33028612,-0.1990548,0.03853687,0.055563,-0.052274,-0.908535,0.410784,0
2841,-0.22323537,1.7878078,9.654877,0.2148,0.24159999,0.021,-0.4992,1.5038999,9.6777,0.26761132,0.059864793,0.061994094,0.05498,-0.059566,-0.90808797,0.410858,0
2881,-0.42501867,1.7155125,9.041396,0.2005,0.088,-0.55079997,-0.52419996,1.5985999,9.6612,0.15165167,-0.0426733,-0.013753194,0.058231,-0.063421,-0.907279,0.411619,0
2921,-0.62360334,1.732454,8.792619,-0.13069999,0.0607,-0.99649996,-0.4772,1.6455,9.6558,-0.016266469,-0.29335493,-0.04145157,0.056993,-0.066651,-0.907457,0.41089,0
2961,-0.10345824,1.5135952,10.205859,0.4003,-0.0101,0.41669998,-0.34149998,1.6281999,9.6644,-0.091245815,-0.2933724,-0.23342033,0.050147,-0.068798,-0.908511,0.409095,0
3001,0.066865265,1.6959472,9.730017,0.1399,0.0687,0.14649999,-0.27719998,1.6082,9.6699,0.006003933,0.18163641,-0.07218682,0.046442,-0.069389,-0.910252,0.405546,0
3041,0.0692882,1.791514,9.1409855,0.5523,0.1742,-0.4989,-0.366,1.6006999,9.668099,-0.11409217,0.17081538,-0.112085044,0.050379,-0.067238,-0.91058,0.404701,0
3081,-0.74923193,1.6635776,9.107801,-0.3834,0.1784,-0.6149,-0.3814,1.5475,9.6762,-0.2817485,-0.12587315,-0.052045718,0.049833,-0.064534,-0.91171,0.402661,0
3122,-0.56830686,1.4862821,9.771475,0.0023,0.009,0.0118,-0.3847,1.4129,9.6967,-0.4617443,0.25483552,0.12142256,0.047193,-0.058126,-0.912114,0.40304,0
3161,-0.36556587,1.2106425,10.050725,0.031,-0.042999998,0.3078,-0.4331,1.2688,9.714499,-0.19455186,-0.20069541,0.0879995,0.04659,-0.050244,-0.911466,0.405627,0
3201,-0.21541111,1.1492647,9.971955,0.252,-0.3049,0.2778,-0.3403,1.217,9.7248,0.06668903,-0.46657887,0.06394886,0.041232,-0.049684,-0.911168,0.406943,0
3241,0.17939274,1.3978404,9.579134,0.2392,0.0884,-0.085,-0.14109999,1.255,9.724899,0.09211848,-0.45924848,0.03715806,0.032753,-0.055597,-0.911034,0.407249,0
3281,0.09142977,1.4250288,9.428481,0.0552,0.1308,-0.3683,0.0133,1.2714,9.7238,-0.07897615,-0.29279643,0.06822492,0.025907,-0.059579,-0.91087097,0.407544,0
3321,0.22733425,1.208143,9.712031,0.071499996,0.0021,-0.047399998,0.1343,1.2433,9.7265,-0.0861669,-0.19945623,0.035744343,0.01972,-0.060771,-0.910632,0.408248,0
3361,0.13972561,1.3254684,9.518963,-0.0482,0.1193,-0.17889999,0.1855,1.2045,9.730599,-0.15329227,0.13981833,0.05544911,0.016568,-0.060016,-0.910437,0.408933,0
3402,0.13211204,1.3199139,9.554799,-0.0821,0.2136,-0.21589999,0.1312,1.1494,9.7381,-0.056409042,-0.038955748,-0.019792033,0.017996,-0.056281,-0.910208,0.409913,0
3441,0.12226709,1.2135059,9.495576,-0.0107,0.1405,-0.2465,0.16759999,1.1342,9.7393,-0.06305875,-0.13278465,-0.1219287,0.015913,-0.056358,-0.910726,0.408836,0
3481,0.26662788,1.1412202,9.747504,0.1007,0.0628,-0.0646,0.17379999,1.0943,9.7438,-0.18865263,0.20814797,-0.036756635,0.014683,-0.054647,-0.911597,0.40716898,0
3521,0.18640298,1.0658123,9.739392,0.131,0.028299998,-0.0137,0.1043,1.0307,9.751699,-0.117024325,0.10410889,-0.063756876,0.016558,-0.050237,-0.912094,0.406553,0
3561,0.14162183,0.9820153,10.105638,0.032899998,-0.0301,0.2857,0.0552,0.9912,9.7562,-0.020176006,0.14346607,-0.009372418,0.017985,-0.047383,-0.912534,0.405846,0
3601,0.1178043,1.3248842,9.772634,0.0295,0.050699998,-0.1647,-0.0099,0.9985,9.7556,0.043598324,0.12924163,0.027488936,0.021188,-0.046367,-0.91245,0.405998,0
3641,-0.010544064,1.0813078,9.598479,-0.020499999,0.0679,-0.1134,-0.0284,1.0205,9.7533,0.05883505,-0.079325214,0.04452335,0.022536,-0.047003,-0.912165,0.406492,0
3682,0.057633225,1.1022042,9.428443,0.0828,0.0598,-0.30769998,-0.0044,1.0383999,9.7515,-0.012740904,0.018151425,0.049619712,0.021829,-0.04832,-0.911783,0.407234,0
3721,0.106666476,1.1313847,9.755222,0.035299998,0.039699998,0.0541,-0.0059,1.0291,9.752399,-0.023038346,0.007941248,0.012339477,0.021744,-0.047836,-0.911471,0.407992,0
3761,0.032743104,0.9862962,10.094835,0.0096,-0.0448,0.2695,-0.0096,1.0253999,9.7528,0.057892572,0.11730358,0.025062928,0.021848,-0.047582,-0.911416,0.408141,0
3801,0.06890513,1.256841,9.776952,0.1214,0.1822,0.047199998,-0.072299995,1.0533,9.749599,0.08567821,0.11234684,0.013281955,0.025392,-0.047558,-0.911025,0.408809,0
3841,-0.09841127,1.2737536,9.663323,0.021699999,0.1276,-0.13499999,-0.1002,1.0883,9.7455,0.09019861,0.019425515,-0.045989424,0.027423,-0.048611,-0.910931,0.408764,0
3881,-0.17093644,1.1327829,9.446447,-0.051,0.035499997,-0.3577,-0.1156,1.1118,9.7427,-0.018744836,0.024155356,-0.053040557,0.028584,-0.049413,-0.91128397,0.407802,0
3921,-0.14398728,1.0636002,9.482494,-0.0184,-0.018099999,-0.26999998,-0.1188,1.1065999,9.743199,-0.029094638,-0.060999256,-0.034348078,0.02858,-0.049134,-0.91166997,0.406972,0
3962,0.04541322,1.0614836,9.58533,0.0752,-0.0229,-0.1739,-0.094799995,1.0918,9.7452,-0.0567232,-0.06260496,-0.016301375,0.027122,-0.048955,-0.911952,0.40646,0
4001,0.04954082,1.1753806,9.49503,0.1797,0.030499998,-0.2356,-0.0718,1.0677999,9.748,-0.06780604,-0.058451075,-0.03939208,0.025531,-0.048318,-0.912175,0.406139,0
4041,0.59127206,1.5053208,9.266672,0.5336,0.4107,-0.46429998,-0.0334,1.0406,9.7512,-0.11746066,-0.17723818,-0.05715953,0.023133,-0.047865,-0.912597,0.40538698,0
4081,0.36549884,1.7566737,9.152995,0.44919997,0.6835,-0.64669997,0.0313,0.9835,9.7571,-0.23752186,-0.17756979,-0.1314233,0.018842,-0.046568,-0.91343397,0.403872,0
4121,0.96689355,1.6597085,8.552213,0.8666,0.76879996,-1.1859,0.094299994,0.8786,9.7667,-0.43755403,-0.19970058,-0.17863445,0.013606,-0.043002,-0.914798,0.401384,0
4161,0.34970668,1.268764,9.214612,0.1874,0.6537,-0.5233,0.1753,0.6897,9.7807,-0.50242794,-0.13475688,-0.14332643,0.005796,-0.035845,-0.916789,0.397717,0
4201,0.29294494,0.7245525,9.302355,-0.0717,0.309,-0.7102,0.2384,0.49499997,9.7912,-0.60515803,-0.12578587,0.051714107,-0.00117,-0.028003,-0.9178,0.39605,0
4241,0.69294906,1.2394973,8.951872,0.5282,0.96,-0.8175,0.2366,0.2559,9.8004,-0.55463076,0.048799407,0.068382,-0.005886,-0.016771,-0.9175,0.397337,0
4282,1.1054317,1.3317412,8.395211,0.8393,1.2997,-1.3313,0.21,0.0437,9.804299,-0.5384166,0.15102334,0.003141593,-0.00893,-0.006314,-0.917015,0.398701,0
4321,-0.064499795,0.94962656,8.002562,-0.0076,1.0421,-1.7725999,0.1449,-0.1595,9.8042,-0.357042,0.13255775,-0.025534166,-0.010015,0.004521,-0.917325,0.397985,0
4361,-0.5288026,2.0646734,7.0914435,-0.63379997,2.2424,-2.5259,0.114099994,-0.26139998,9.8025,-0.105836764,-0.018011797,0.1007055,-0.010653,0.009907,-0.916933,0.39877298,0
4401,-0.124239914,0.9561005,9.541718,-0.48209998,1.5673,-0.94369996,0.2075,-0.32189998,9.7991,-0.18362609,-1.1097152,-0.18490018,-0.016259,0.010827,-0.916691,0.399117,0
4441,-0.03175669,0.22564873,12.918959,-0.6971,0.64419997,2.8267999,0.6775,-0.4089,9.7746,-0.3981096,-0.6095388,-0.001204277,-0.040015,0.005437,-0.917193,0.396389,0
4481,0.5404767,0.13257173,12.641816,-0.1471,0.75259995,2.8885,0.7355,-0.5761,9.762,-0.4534889,0.9331403,0.11229448,-0.046134,0.012085,-0.916745,0.396615,0
4521,0.20533632,0.96268934,11.007419,-0.1996,1.4612,1.5029,0.3565,-0.7061,9.7746,0.22471114,0.643276,0.1327672,-0.031055,0.025788,-0.916295,0.398464,0
4561,0.2588036,1.5813606,9.433347,-0.021,2.0372999,-0.2958,0.17799999,-0.5663,9.7886,0.58122957,-0.14892894,-0.051347587,-0.019882,0.022842,-0.91602,0.399986,0
4602,-0.65486205,1.5451891,10.029493,-0.7524,1.9964999,0.138,0.2523,-0.3784,9.796,0.027227135,0.040910516,0.021031218,-0.019499,0.012565,-0.916782,0.398712,0
4641,-0.11473972,1.9476353,10.951175,-0.39749998,2.3177,0.9817,0.18169999,-0.42499998,9.7957,-0.38955748,0.3363424,0.3151541,-0.017186,0.016139999,-0.915805,0.400929,0
4681,0.06397307,2.497497,11.079676,0.0839,3.0523999,1.3103,0.0827,-0.5517,9.7907,-0.13634512,-0.006056292,0.17025687,-0.015291,0.024002999,-0.913415,0.406032,0
4721,-0.5863209,1.9985933,10.962944,-0.7274,2.5549998,1.2445999,0.060599998,-0.6034,9.7878,-0.09023352,0.28281316,0.3275634,-0.015428,0.026817,-0.911868,0.409315,0
4761,-0.022744916,2.1137927,9.964399,0.1085,2.8818998,0.1575,-0.069299996,-0.6264,9.7863,0.009651671,0.19244,0.21485002,-0.010057,0.030535,-0.909139,0.415249,0
4801,-0.5910231,0.9411703,10.315821,-0.5225,1.6916,0.5875,-0.12459999,-0.5933,9.7878,0.33862877,-0.0368439,0.2356718,-0.006908,0.030145,-0.907539,0.418826,0
4841,0.90377283,1.2104988,8.56496,0.788,1.4908999,-0.9406,-0.1113,-0.4416,9.796,0.3667635,-0.1055226,0.22294836,-0.004404,0.022807,-0.905462,0.42379,0
4882,0.6549291,0.8441668,7.9926977,0.85469997,1.3377,-1.8168,-0.1192,-0.357,9.799399,-0.30307642,0.4612556,-0.08147197,-0.002264,0.019061,-0.904375,0.426305,0
4921,0.4499184,-0.4338964,9.297605,0.83769995,0.3191,-0.7766,-0.318,-0.4956,9.788899,-0.19915952,0.48888418,-0.28061405,0.003972,0.029775,-0.905206,0.423908,0
4961,-0.005085284,-1.1720862,9.148455,0.3947,-0.7495,-0.6428,-0.4633,-0.5056,9.782599,0.48040187,-0.15908676,-0.25850073,0.010664,0.033327,-0.907542,0.418499,0
5001,0.22583069,-0.023080105,10.644564,0.5719,0.1248,0.6965,-0.3267,-0.3013,9.7965,0.48328167,-0.359468,-0.24658011,0.008809,0.020889,-0.910094,0.41378,0
5041,0.25330654,0.7851258,11.910368,0.39139998,0.6803,1.8366,-0.1953,-0.1311,9.8038,0.30178487,-0.44066072,-0.08644616,0.006345,0.010182,-0.91217,0.409635,0
5081,0.64816785,2.2300456,12.882347,0.5743,2.1267,2.7458,-0.015299999,-0.018299999,9.8066,0.043476153,-0.33969343,-0.039793506,3.45E-04,0.00117,-0.912694,0.408641,0
5121,0.26263434,2.454564,12.944222,0.0347,2.5923,3.3932,0.0437,-0.0328,9.806399,-0.1232377,0.21200514,-0.060074233,-0.002718,6.22E-04,-0.91313,0.407658,0
5162,0.7863899,3.0606134,9.79739,0.508,3.3032,0.43159997,0.021499999,-0.0572,9.806399,-0.096761055,-0.46814966,-0.18376571,-0.00219,0.002224,-0.91383,0.406084,0
5201,0.54050535,1.9276102,11.204394,0.16939999,2.1722,0.8178,0.2228,-0.1618,9.8027,-0.692983,-0.33112386,-0.16083209,-0.013721,0.002987,-0.915506,0.402058,0
5241,-1.5996523,0.82960045,9.836931,-1.9605999,0.9385,0.59929997,0.264,-0.3795,9.7957,0.15358898,0.24806364,0.1929287,-0.020088,0.012352,-0.916229,0.399959,0
5281,0.03626737,-0.19969557,3.693104,-0.0396,0.296,-6.5557,0.2553,-0.1783,9.8017,0.58676225,-0.61501914,0.1189791,-0.015585,0.003066,-0.914791,0.40361398,0
5321,-1.8071817,-1.5392514,7.561952,-2.0714,-1.485,-2.3279998,0.3356,-0.0643,9.8006,0.2713638,0.7507708,0.6682691,-0.016967,-0.003987,-0.912857,0.407907,0
5361,-0.7244854,0.5855355,4.1045427,-1.0195,0.2208,-5.0284,0.12709999,0.1714,9.804299,1.710475,-0.8817054,0.40828487,-0.002204,-0.010655,-0.907276,0.420393,0
5401,-0.85473,-0.26997018,8.618417,-1.1897,-0.80579996,-2.7368,0.6209,0.74689996,9.7584,-0.14866714,-0.6451435,0.22984241,-0.012486,-0.047988,-0.90407,0.424497,0
5441,3.364294,0.71878725,13.579462,1.4557999,-0.43199998,3.5368,0.6329,0.5496,9.7706995,-0.71272266,0.66320765,0.6187192,-0.017006,-0.039255,-0.900998,0.431708,0
5482,2.0086393,2.2912414,14.9071045,2.2045999,1.9857999,4.9209,0.47259998,0.34809998,9.789,0.15105824,-0.18271852,-0.25228733,-0.013903,-0.026516,-0.898717,0.437504,0
5521,0.9177837,3.400494,12.751556,0.37899998,2.7623,3.4754,0.5133,0.44439998,9.7831,0.26546457,0.19432496,0.08876745,-0.013714,-0.031807,-0.899848,0.434824,0
5561,-0.17600255,3.2116203,11.807341,-0.5215,2.8297,1.9851999,0.46269998,0.5045,9.7827,-0.039566614,-0.17777924,0.07934267,-0.009996,-0.033465,-0.899026,0.436498,0
5601,-0.37581304,1.9084469,10.853549,-0.9993,1.6366,1.2406,0.51879996,0.4619,9.782,-0.2822721,0.105417885,0.15968017,-0.013454,-0.032789,-0.898148,0.438261,0
5641,-0.8943492,-0.1697489,8.719567,-1.127,-0.3399,-0.3242,0.47,0.38889998,9.7876,0.2836858,0.27159068,2.44E-04,-0.012789,-0.028373,-0.897408,0.44009998,0
5682,0.001168371,-0.16849434,3.5507162,-0.9665,-0.7035,-5.8538,0.3486,0.527,9.7862,0.335941,0.40690607,0.2836509,-0.00407,-0.031978,-0.896506,0.441857,0
5721,1.5837836,0.022629995,5.638881,1.4447,-0.6397,-4.5449,0.2322,0.6594,9.7817,0.6095388,-0.00832522,-0.25026277,0.004363,-0.035398,-0.894935,0.444768,0
5761,1.0843244,-1.2412882,4.750125,1.0847,-1.7648,-4.9426,0.22929999,0.95089996,9.7577,0.68158597,-0.29731685,-0.6119648,0.010812,-0.04875,-0.89719,0.438812,0
5801,-2.3460686,-1.9330497,10.3399725,-2.7245,-3.1699998,-0.2193,0.2434,1.1007999,9.7416,-0.08189085,0.41538835,0.14735815,0.012946,-0.056102,-0.901334,0.429279,0
5841,1.962508,1.3295481,10.899403,1.6231999,-0.3048,0.94439995,0.1909,1.1678,9.7348995,0.7861312,-0.9064193,0.30551988,0.017172,-0.057953,-0.898739,0.434297,0
5881,1.447793,3.2362711,11.273194,0.658,1.5236,1.5540999,0.48929998,1.3987,9.693999,-0.13796827,0.020210912,0.41554543,0.008994,-0.075234,-0.895455,0.438655,0
5921,1.532289,4.7408166,14.443137,1.1703,3.3544,4.2513,0.4967,1.2547,9.7133,-0.4619363,-0.4172733,0.063442715,0.005869,-0.068718,-0.892954,0.444831,0
5962,3.4341471,4.951161,15.202578,2.389,3.8823,5.4937,0.7294,1.1092,9.7163,-0.50197417,-0.5156924,-0.21617648,-0.008143,-0.067353,-0.893372,0.444165,0
6001,0.23313779,2.2743096,14.045211,0.14119999,1.6796,5.2878,0.79029995,0.87,9.7359,-0.51251596,0.70671874,-0.20041616,-0.016724,-0.057661,-0.896586,0.438779,0
6041,-2.1109006,1.9396002,6.0974956,-2.1971,1.4913,-2.6207,0.44169998,0.7249,9.7698,-0.044540804,1.419389,0.077667154,-0.004072,-0.043132998,-0.898249,0.437345,0
6081,2.370978,2.674515,2.0715878,1.5976,1.5371,-7.7088,-0.0383,0.7477,9.778,0.2698279,0.59815925,0.026703538,0.01861,-0.033366,-0.896521,0.441349,0
6121,-1.3058934,-1.4441633,4.775877,-0.1907,-1.7810999,-4.7244,-0.2014,0.8789,9.7651,0.757246,0.2827957,-0.50296897,0.028864,-0.035848,-0.89836997,0.436819,0
6161,-1.5257291,0.30226317,2.704672,-2.2368,-1.2581999,-6.8069997,-0.3423,1.1797999,9.7293,0.7510675,-0.16153023,0.24216443,0.04186,-0.046759,-0.899636,0.432105,0
6201,-1.3571389,-0.31000125,14.767062,-0.5615,-1.4115,3.4252,0.041699998,1.4017,9.7058,0.44649014,-1.8660362,-0.3105639,0.028983999,-0.065561,-0.899829,0.430312,0
6242,0.25907177,1.0457969,12.580984,-1.0521,-1.1661999,2.812,0.4441,1.5583999,9.6718,-0.16350244,0.5202303,0.80173445,0.013865,-0.081741,-0.899232,0.429542,0
6281,1.1949652,2.954349,14.820511,1.101,1.3347,4.9005,0.35029998,1.5188999,9.6819,0.49232247,-0.56286865,0.2816263,0.018418,-0.077577,-0.893301,0.442329,0
6321,0.91559064,3.504939,11.979283,0.1805,1.6607,2.7752,0.5549,1.7127,9.6399,0.08313003,0.13727015,0.3363424,0.013916,-0.091132,-0.890079,0.446384,0
6361,0.75782233,3.8056698,11.373196,0.529,2.3344,1.7737,0.4711,1.6176,9.6608,-0.8434129,0.2604555,-0.1425585,0.01598,-0.084731,-0.888321,0.451054,0
6402,-0.44422978,1.7793899,11.858347,-0.7211,0.8075,2.1782,0.3583,1.2714,9.717199,-0.8943067,0.5654169,-0.17758726,0.012834,-0.066276,-0.891345,0.44827,0
6441,0.12843455,0.5545737,7.766742,0.1134,-0.21769999,-1.3522999,0.111999996,0.9826,9.756599,-0.36363935,0.7347662,-0.17362535,0.01731,-0.047431,-0.893362,0.446491,0
6481,-0.053017203,-0.30049145,3.9791152,-0.1215,-1.1032,-5.2741,-0.18239999,0.87759995,9.7655,0.094963364,0.6593679,0.03052581,0.028284,-0.035964,-0.894458,0.444803,0
6521,1.0332034,-0.011712435,2.6843789,1.4408,-0.93439996,-7.3908997,-0.43069997,0.9148,9.7543,0.029496064,0.36404076,-0.07023205,0.040521,-0.031987,-0.893749,0.445585,0
6561,1.355894,0.012813767,5.681929,1.586,-0.6943,-4.3139997,-0.5171,0.9492,9.746799,0.2043955,-0.35051447,-0.23701571,0.045206,-0.031677,-0.89434,0.44396698,0
6601,-0.3666672,-0.09710882,12.222552,0.38509998,-1.1078,1.3874999,-0.38509998,0.95089996,9.7528,-0.44401175,0.274453,-0.08330456,0.039014,-0.034956,-0.896855,0.439211,0
6641,1.9001437,1.7789494,12.9079075,1.8903999,0.47239998,3.2974,-0.49789998,0.871,9.755099,0.63100636,-0.6520725,0.025359634,0.042407,-0.028726,-0.896602,0.439863,0
6681,1.4135463,2.2529244,14.700475,1.8477,1.1912999,4.6912,-0.161,1.0935,9.7441,0.044034656,-0.6788807,-0.2639636,0.031841,-0.046611,-0.897654,0.43707,0
6722,-0.0720942,2.2062857,15.308468,0.0635,1.1056,5.5639,-0.0635,1.0126,9.754,-0.27965412,-0.119555056,-0.079970986,0.025335,-0.045181,-0.899919,0.432969,0
6761,1.6505053,3.3047645,11.070357,1.4633,2.3402,2.3752,0.10569999,0.99399996,9.7555,0.1699427,-1.004437,-0.3325376,0.017018,-0.048113998,-0.901039,0.430723,0
6801,-0.5186224,1.8446846,9.337751,-0.25959998,1.0978,-0.1248,0.3773,0.9321,9.7549,-1.0615093,0.6455275,-0.43654174,0.002704,-0.051268,-0.904675,0.422997,0
6841,-1.5497476,1.5780183,6.1122627,-2.0753,0.89839995,-3.1817,0.064899996,0.543,9.7913,-0.3551745,0.5236686,-0.006422812,0.008548,-0.026556,-0.908406,0.417156,0
6881,-0.52257764,2.342985,4.024787,-0.3703,1.8925999,-5.4986997,-0.080699995,0.4903,9.794,0.5044176,0.08281587,0.07033677,0.014182,-0.021007,-0.908369,0.417399,0
6921,1.0352144,1.0846212,1.9939774,1.2147,0.5577,-8.2390995,-0.057499997,0.7367,9.7787,0.2969503,-0.23897047,-0.12383111,0.018415,-0.032902,-0.90734,0.418702,0
6961,-2.3675973,0.107988074,7.6618576,-2.5879998,-0.6252,-2.2423,-9.00E-04,0.8017,9.7738,0.17650515,-0.2523048,0.06981317,0.017085,-0.037175998,-0.908349,0.416206,0
7001,-0.14969507,0.023434447,17.258595,0.4719,-0.7467,5.0621,0.30269998,0.8448,9.7655,-0.043231804,-1.1322474,-0.04235914,0.003906,-0.045637,-0.908203,0.416015,0
7041,-0.25258827,0.45154646,12.728055,-1.2033,-0.7654,4.1502,0.42859998,0.9027,9.7555,0.27630308,0.9835105,0.80321795,-5.32E-04,-0.051015,-0.906557,0.418987,0
7081,0.967631,1.4278636,14.58765,1.2585,0.8312,3.7833998,0.22219999,0.9339,9.7595,-0.18142697,-0.49410272,0.26415557,0.010411,-0.04789,-0.90036297,0.432369,0
7121,0.03838384,1.3731321,13.094703,-0.675,0.099,4.2973,0.4103,0.91099995,9.7556,0.006981317,0.008290314,0.55159384,0.001534,-0.050988,-0.897867,0.4373,0
7161,0.48744032,1.934649,11.049989,-0.065299995,1.211,1.2988,0.4085,0.8287,9.763,-0.44258058,-0.0771261,0.3896622,2.72E-04,-0.04716,-0.893353,0.446873,0
7201,-0.13701539,0.741015,8.4537735,-0.30879998,0.15349999,-0.7794,0.4461,0.68979996,9.7720995,-0.034417894,0.1007404,0.11211995,-0.004362,-0.041693,-0.89087,0.452319,0
7241,0.1794119,0.5320874,4.389529,-0.4599,-0.19219999,-4.9985,0.3913,0.6924,9.7743,0.14385004,0.09819222,0.05417502,-0.001717,-0.040547,-0.889875,0.454395,0
7281,1.1194617,0.070236295,3.236865,0.7479,-0.5499,-6.5861998,0.33069998,0.7363,9.7733,-0.11287044,0.541628,-0.09911725,0.002071,-0.041138,-0.889663,0.454755,0
7322,0.79466426,0.6720141,5.93627,0.83379996,-0.47829998,-4.4749,0.137,0.70379996,9.7803,0.22111577,-0.06792822,-0.22848105,0.010044,-0.03518,-0.890791,0.452937,0
7361,2.042101,1.1772194,7.579928,2.0406,0.39999998,-2.9054,0.22459999,0.816,9.7699995,-0.100234255,-0.6203249,-0.54237854,0.008418,-0.042365,-0.893062,0.447854,0
7401,-0.29900706,-1.235772,16.470978,-1.1222,-1.5854,5.6658,0.35729998,0.6342,9.7795,-0.56047755,0.06265732,-0.14475761,-0.002224,-0.037076,-0.898425,0.437551,0
7441,2.321399,-0.33633748,15.657878,1.8402,-1.0791,5.4396996,0.46429998,0.5496,9.7802,0.24064599,-0.89943796,0.09208357,-0.009077,-0.035567,-0.899163,0.436071,0
7481,0.5818102,1.5934083,14.300807,-0.13419999,0.38329998,5.3322997,0.6932,0.6561,9.76,0.61522853,-0.07393215,0.4084245,-0.017081,-0.045634,-0.897336,0.438649,0
7521,1.7444824,4.233705,9.1027355,0.93759996,3.175,-0.1697,0.7981,0.91429996,9.7312,0.45347145,-0.68760735,0.001151917,-0.015675,-0.059984,-0.89342797,0.444907,0
7561,0.44271663,2.8033612,9.960827,-0.33089998,2.099,0.13949999,1.0074999,0.9704,9.7063,-0.68331385,0.18483037,-0.25085616,-0.024149999,-0.067307,-0.893896,0.442532,0
7602,0.49963158,1.4372201,7.600345,-0.1487,1.1403999,-2.0621998,0.87439996,0.7227,9.7408,-0.4932475,0.4256509,-0.42652357,-0.023938,-0.052761998,-0.897131,0.437947,0
7641,-1.3454936,-0.9111278,5.1255546,-1.9652,-1.3126,-4.0716,0.7197,0.63589996,9.7595,0.2245017,0.39741147,-0.19249237,-0.019167,-0.045126,-0.901319,0.43037,0
7681,-0.9254069,-1.3148956,3.9440165,-1.3409,-1.9655,-5.8531,0.527,0.71999997,9.7659,0.18959512,0.6418274,0.27766442,-0.008473,-0.044748,-0.90183,0.429683,0
7721,-2.2727106,-0.82594216,6.7885485,-2.0837,-1.9181,-3.6185,0.3381,0.81,9.7671995,0.601615,0.018081611,0.66343457,0.002548,-0.044726,-0.898516,0.43664598,0
7761,2.1331475,0.65666246,9.038897,1.1367999,-0.5503,-2.8607,0.5009,1.0701,9.7352,0.051330134,-1.5981805,0.65125215,0.001781,-0.060326,-0.891148,0.449679,0
7801,-0.1127669,-0.013570336,16.830097,-1.1307,-0.8997,7.5537,0.91499996,0.9684,9.7157,-0.4995656,0.74509853,1.0158863,-0.01869,-0.065472,-0.885394,0.459826,0
7841,2.805085,2.0101717,15.804346,2.2997,1.017,5.8887997,0.68149996,0.76769996,9.7527,-0.001675516,0.10971139,0.6812544,-0.011723,-0.051084,-0.876189,0.479109,0
7882,-0.15722245,2.1343925,15.651309,-0.79639995,1.1941999,6.397,0.72779995,0.82589996,9.744599,0.5580341,-0.104335785,0.4136605,-0.011765,-0.054972,-0.870648,0.488682,0
7921,0.74183863,2.7939856,11.43214,-0.13319999,1.7234,2.2405,0.6824,0.9831,9.7333,0.079395026,0.5606172,0.47310638,-0.005214,-0.060912,-0.865519,0.49713,0
7961,1.6182218,1.7602937,8.424679,0.8698,0.95659995,-0.89589995,0.53249997,0.9948,9.7415,0.089029245,-0.033440508,0.009686577,0.002157,-0.057588,-0.861932,0.503737,0
8001,-0.03298252,0.467262,4.3834963,0.021699999,-0.31239998,-4.9252996,0.50769997,1.0185,9.7403,-0.18514453,0.30665433,-0.30199432,0.003768,-0.058003,-0.862683,0.502393,0
8041,-1.4881495,-0.6370109,2.8910942,-2.0098,-1.4452,-6.9605,0.38189998,0.92539996,9.7554,-0.4389503,0.25022787,-0.11341149,0.006658,-0.050676,-0.865667,0.498003,0
8081,-0.05011543,-0.7923946,4.767497,-0.5122,-1.4959999,-5.1236997,0.28669998,0.7703,9.7720995,-0.10314896,0.1905725,0.061802108,0.006877,-0.041377,-0.866551,0.497321,0
8121,0.83389086,-0.08768524,5.795883,0.34149998,-0.8075,-3.997,0.2566,0.7682,9.7731,0.09754645,-0.31035444,-0.049288098,0.008196,-0.040514,-0.866048,0.498248,0
8161,-0.2853984,-1.0542148,14.368649,0.0109,-1.7028999,2.975,0.391,0.7026,9.7736,-0.64187974,0.18373081,0.07136651,4.88E-04,-0.041033,-0.867161,0.496332,0
8202,2.9861345,1.4931295,13.812629,2.0479999,0.268,5.2283,0.2859,0.5753,9.7855,0.7988197,-0.23998277,0.34002504,0.002085,-0.032707,-0.86495197,0.500783,0
8241,2.8000572,1.388819,15.672722,2.3962998,0.9169,4.4983997,0.6142,0.84819996,9.7505,-0.22811453,-1.0837448,-0.31934288,-0.005398,-0.053201,-0.863748,0.501077,0
8281,1.4989331,2.4579067,15.41749,0.7583,1.2953,6.5848,0.742,0.7051,9.752999,-0.07834783,0.29260445,-0.08655088,-0.014952,-0.050078,-0.86629,0.496799,0
8321,1.6990787,3.4813035,9.189933,1.048,2.8362,0.0107,0.78569996,0.7431,9.746799,-0.017383479,-0.88606876,-0.5298645,-0.016146,-0.052815,-0.868179,0.493168,0
8361,-0.13708241,1.4525048,7.7412777,-0.8639,1.1615,-1.9817,0.9619,0.63299996,9.7387,-1.1611675,0.7211875,-0.43844417,-0.027338,-0.052077,-0.8735,0.483256,0
8401,0.7469143,0.15196477,5.267885,-0.13769999,0.005,-4.3055997,0.7064,0.25959998,9.777699,-0.34634313,-0.002722714,-0.36917204,-0.025378,-0.028826,-0.878523,0.476152,0
8441,-1.5711422,-0.84137994,4.8580747,-2.0578,-1.0538,-4.3155,0.7241,0.2006,9.7778,0.27680922,0.38269836,0.1306728,-0.027781,-0.026425,-0.881654,0.470335,0
8482,-0.47409025,-0.57268345,4.7168937,-0.6282,-0.5967,-6.2644997,0.57919997,0.2927,9.7851,0.2599319,-0.19945623,0.18790215,-0.01891,-0.027175,-0.879509,0.474727,0
8521,-2.5379782,-0.4634504,8.229532,-3.9936,-1.2535,-1.2329,0.6594,0.43949997,9.7745,0.6236934,-0.004310963,0.7588517,-0.018752,-0.035829,-0.876541,0.479624,0
8561,1.2145593,0.5382453,16.343607,1.8722999,-0.2435,3.8716998,0.7754,0.5671,9.759399,-0.22382103,-0.28796187,0.22242476,-0.020212,-0.044683,-0.869496,0.491497,0
8601,-0.57728994,0.8367352,10.966344,-2.1612,-0.1943,3.0149999,0.65099996,0.6552,9.763,1.0264804,0.511556,0.8610582,-0.012114,-0.045563,-0.865686,0.498361,0
8641,1.9770073,1.108592,14.622013,2.3941998,0.6897,3.5670998,0.5575,0.88909996,9.750299,-0.26202628,-0.018046705,0.11419689,-0.001235,-0.053572,-0.85802,0.510812,0
8681,0.32523796,0.7411682,15.034236,-0.6911,-0.454,6.2574,0.5244,0.8364,9.7568,0.26352727,0.56384605,0.69673544,-9.05E-04,-0.050394,-0.855623,0.515138,0
8722,1.0085719,2.7398095,10.942966,0.8204,1.7966,1.551,0.3563,0.9295,9.755899,0.33456215,0.07572984,0.3884754,0.009575,-0.049914,-0.848477,0.52678597,0
8761,0.5510399,2.0680923,7.7247767,0.0459,1.0088999,-1.5554999,0.3462,1.0504,9.7439995,0.14315191,0.29309314,0.30178487,0.013666,-0.054806,-0.844419,0.532695,0
8801,1.8917162,1.8430085,3.2430131,1.3888999,0.979,-5.9177,0.2193,1.0999,9.7422,0.19985765,-0.075450584,-0.12255702,0.020787,-0.053376,-0.841475,0.53725,0
8841,0.22791843,-0.5417695,4.1642346,0.2242,-1.4365,-5.7318997,0.29549998,1.162,9.733,-0.083845615,0.06274459,-0.39894736,0.018906,-0.058255,-0.844149,0.532597,0
8881,2.1455016,-0.27262294,4.796362,1.6736,-1.5067999,-5.2386,0.1994,1.1244,9.7399,-0.002024582,-0.026302112,-0.57644737,0.021661,-0.054151,-0.847904,0.526931,0
8921,1.5285541,-1.1464683,8.76228,1.2933999,-2.0874,-1.5559,0.2658,1.1558,9.7346,-0.10321877,-0.4635769,-0.84021896,0.018822,-0.057582,-0.855127,0.514865,0
8961,-0.24090457,-0.148814,15.272383,-0.9518,-1.504,4.7095,0.29479998,1.0529,9.745399,-0.13791592,0.35259143,-0.14156365,0.014058,-0.054038,-0.862708,0.502609,0
9001,2.576027,2.2770581,11.552033,2.2697,0.85569996,2.1833,0.329,1.1644,9.7317,0.6780255,-1.5714595,-0.34697145,0.015209,-0.059913,-0.864178,0.499374,0
9042,0.3568701,1.2521579,17.40595,0.2977,0.1726,7.3083997,0.8005,1.2297,9.696199,-0.7345393,0.25354397,-0.15467107,-0.004599,-0.074883,-0.86747,0.491798,0
9081,-0.13426682,3.4543254,11.800302,-1.5263,1.7866,3.2942998,0.7417,1.0768,9.719,0.5912128,-0.7313104,0.24612632,-0.005878,-0.06656,-0.868287,0.49153998,0
9121,0.9373587,4.200474,5.6679754,0.0083,3.3794,-3.3346999,1.0507,1.2492,9.6698,-0.45331436,-0.32665583,-0.19174187,-0.015128,-0.082139,-0.866187,0.49269,0
9161,0.26428154,0.91669196,8.184866,-0.6874,0.4865,-2.4645,1.0503,0.8667,9.711599,-2.0164487,0.687939,-0.25406757,-0.025127,-0.064908,-0.869904,0.488284,0
9201,0.31758606,-0.51217717,9.121181,-0.6967,-0.6638,-0.3613,0.7556,0.1832,9.7757,-0.69631654,0.52103317,-0.007801622,-0.029181,-0.026878,-0.873825,0.484618,0
9241,-1.225927,-0.9601898,9.881808,-1.6990999,-0.9543,0.3716,0.6008,0.061899997,9.788,1.3325938,0.12170181,0.31503192,-0.025271,-0.017625,-0.874135,0.484704,0
9281,-0.95450115,-0.21841823,4.636295,-1.0788,-1.1115,-4.5772,0.5591,0.7094,9.7649,2.3429475,0.14063863,0.6950425,-0.006935,-0.045578,-0.868651,0.493273,0
9321,0.9363914,1.445236,3.868264,-0.8739,-0.5797,-6.3183,0.6385,1.6093999,9.6525,1.9213283,-1.2939173,0.78291976,0.013695,-0.087566,-0.857976,0.505985,0
9362,0.6784785,2.3561819,13.387121,0.23169999,0.6166,3.8399,1.0626999,2.1585,9.5069,0.26040313,1.0666754,0.49600512,0.010808,-0.123147,-0.848542,0.514483,0
9401,2.0013897,3.9637542,12.17715,0.8555,1.3305,2.0742,0.7233,2.2096,9.526999,0.029251719,0.18161896,0.61840504,0.028819,-0.115865,-0.841116,0.527511,0
9441,0.7620265,4.0581813,14.8461,0.0587,1.8413,5.3308,0.765,2.199,9.526199,-0.1561197,-0.044924773,0.3036,0.02783,-0.116284,-0.83601,0.535528,0
9481,0.87094355,4.192774,11.625304,-0.090799995,2.2226,2.6503,0.7087,2.0726,9.5588,-0.5708448,0.4414636,0.36898005,0.027508,-0.108976,-0.832938,0.541831,0
9521,3.0362406,2.1482599,9.675812,2.5033998,0.6393,0.4921,0.6444,1.8514999,9.6086,-0.44931757,0.19451694,-0.072082095,0.024583999,-0.097409,-0.831036,0.547069,0
9561,1.3336374,1.625979,5.109983,0.89989996,-0.1858,-3.9285,0.50229996,1.696,9.6456995,-0.28572786,0.4624948,-0.2724459,0.026096,-0.08672,-0.832875,0.546001,0
9601,0.4041987,-0.16070838,3.7626987,0.31669998,-1.2709999,-6.4842,0.35009998,1.5848,9.6713,-0.4457222,-0.1340762,-0.6736447,0.028911,-0.077845,-0.837355,0.540314,0
9642,-0.8555249,-2.599059,7.7636585,-1.2495999,-3.8797998,-2.4389,0.34739998,1.4282,9.6958,-0.160675,0.08155923,-0.33292156,0.023772,-0.071296,-0.844619,0.530064,0
9681,-1.5807956,-0.7945302,6.2715635,-1.982,-2.3693,-2.6731,0.2953,1.4475,9.694699,0.45875978,-0.06773623,0.028117254,0.02621,-0.070847,-0.847162,0.525937,0
9721,0.042837054,0.5349221,9.740666,-0.5121,-1.1402,-0.91719997,0.3062,1.5129,9.6844,-0.4781155,0.4589867,0.36555922,0.027746,-0.073911,-0.845224,0.528548,0
9761,2.8543386,2.071942,10.976831,1.8693999,0.3141,1.9215,0.2095,1.4314,9.6993,0.7613824,-1.0299014,0.118176244,0.030219,-0.067508,-0.84161997,0.53498,0
9801,1.8692586,1.4480898,13.943361,2.149,0.3166,3.3985,0.59679997,1.5562999,9.663899,-1.3167636,0.18992673,-0.33625513,0.016727,-0.083641,-0.842278,0.53225,0
9841,0.95000005,1.7200041,16.599096,0.3955,0.2092,7.0087,0.4576,1.0361999,9.741,-0.73436475,0.13205162,0.10569714,0.008238,-0.057262998,-0.846479,0.529268,0
9882,2.2296627,4.624305,12.243545,1.5321,3.5925999,3.2786999,0.51739997,0.8693,9.7543,0.15250687,-0.5666211,-0.04569272,0.00122,-0.051634,-0.845848,0.530916,0
9921,0.97895074,3.226934,7.1402273,0.5782,2.7293,-2.1378,0.6279,0.8696,9.7478,-0.6529975,0.515675,-0.2671401,-0.003701,-0.054648,-0.847166,0.528496,0
9961,1.1957601,1.5199541,8.296378,0.67859995,1.1087999,-1.4514999,0.43919998,0.6171,9.7773,-0.27279496,0.24511404,-0.38947022,-0.002567,-0.038566,-0.850789,0.524083,0
10001,-1.0971669,-0.67663974,6.2763424,-1.2995,-1.2608,-2.6989,0.34829998,0.643,9.7793,0.84823,0.44650757,-0.14604916,0.001768,-0.037271,-0.855137,0.517056,0
10042,-0.6064896,-0.41426393,3.3511834,-0.9884,-1.5122,-6.3215,0.2038,0.8944,9.763599,0.8249473,0.56279886,0.21081832,0.014678,-0.044465,-0.855254,0.516088,0
10081,-0.14718594,0.34466928,6.073075,-0.83089995,-0.9475,-3.9819999,0.056199998,1.2319,9.7287,1.1878012,-0.6615147,0.08689994,0.03028,-0.055251,-0.852417,0.519051,0
10121,-0.18002482,1.1084387,13.731139,-0.4191,-0.3981,3.8499,0.5466,1.6926,9.6439,-0.095137894,0.64893085,0.09822713,0.020908,-0.088636,-0.852063,0.515455,0
10162,2.44968,2.8842947,13.476358,2.0525,0.87299997,3.3762,0.28129998,1.6274999,9.6665,-0.24549802,0.5334075,0.15278612,0.031233,-0.078535,-0.849619,0.520579,0
10201,-0.7617488,2.4522564,14.147367,-0.7757,0.8874,4.4849,0.1971,1.5838,9.675799,0.047350783,-0.26546457,-0.084665924,0.033724,-0.074359,-0.84988,0.520612,0
10241,-1.2081524,2.2470443,12.768785,-1.4323,0.68439996,3.2438,0.2555,1.5416,9.6813,-0.5168618,0.05401794,0.2841745,0.030041,-0.074069,-0.849998,0.520685,0
10281,0.35004187,2.8452597,10.817596,-0.0997,1.5194,1.4650999,0.26639998,1.3146,9.714399,-0.59561104,0.042062435,0.38083085,0.023949,-0.064233,-0.846933,0.527261,0
10321,-0.5401798,2.4039893,4.972709,-0.61329997,1.5179,-3.7503,0.22109999,1.1004,9.7422,-0.6244788,0.4993387,0.038048178,0.020435,-0.053555,-0.844361,0.532699,0
10361,-1.0437282,0.13215993,5.1120996,-1.0257,-0.4041,-5.322,0.0156,0.79639995,9.7741995,-0.84770644,0.60049796,-0.04696681,0.021018,-0.034793,-0.844896,0.533382,0
10401,2.0963438,-0.21368729,3.4963388,1.8716999,-0.7547,-5.8533998,-0.1556,0.6174,9.7859,0.40261254,-0.15571828,-0.34257323,0.023512,-0.022412,-0.845495,0.532993,0
10441,0.2915276,-1.8429799,7.0719166,1.0798,-2.4882998,-3.8449998,-0.0894,0.7427,9.778,0.056496307,-0.11639601,-0.5895024,0.023783,-0.029854,-0.850406,0.524739,0
10481,2.344642,-1.7583879,10.357135,2.3934999,-2.6698,0.0014,-0.0301,0.77709997,9.7757,0.08241445,-0.7575776,-0.50289917,0.021797,-0.03316,-0.855646,0.516037,0
10521,1.6769468,0.12918155,14.488703,0.97029996,-0.97029996,5.5105,0.20639999,0.84279996,9.7681,0.73450434,-0.086725414,-0.022183135,0.012826,-0.042388,-0.859918,0.508506,0
10561,3.5630317,2.4894814,13.33102,3.3551998,1.4031,2.1801,0.3908,1.1171,9.7348995,-0.2880317,-1.0926634,-0.35437164,0.011757,-0.059301,-0.860072,0.506577,0
10602,1.278724,1.731343,17.318909,0.9763,0.8488,7.7745,0.6515,0.9359,9.7401,-0.46849874,-0.1256288,-0.28427923,-0.004885,-0.058035,-0.864288,0.499612,0
10641,1.1505672,2.7897525,11.747678,0.3803,1.7163,3.1072998,0.76699996,0.85289997,9.7393,0.19580849,-0.78328633,-0.09622,-0.012389,-0.057262998,-0.866668,0.495432,0
10681,0.6793404,3.346002,6.384694,-0.077199996,2.7522,-3.2739,1.0088999,0.8566,9.7169,-0.82472044,0.14350097,-0.29564133,-0.023208,-0.063529,-0.867513,0.492793,0
10721,-1.0412575,1.0940064,5.0801992,-1.9649999,0.616,-4.1714997,0.88629997,0.54109997,9.7515,-0.64027405,0.44790384,-0.2666165,-0.026035,-0.046189,-0.871828,0.486933,0
10762,-0.015150508,0.92069507,7.15284,-0.80149996,0.5286,-3.2803,0.7524,0.3245,9.7723,-0.044139378,0.17088519,6.81E-04,-0.025585,-0.033077,-0.874273,0.483628,0
10801,-0.537527,0.17710388,4.423326,-1.3113999,-0.097799994,-5.0394998,0.6543,0.4116,9.7761,0.79689986,0.26310837,0.25144958,-0.018995,-0.034574,-0.873589,0.485061,0
10841,-2.8095956,-0.43037212,6.461213,-3.1652,-1.4557999,-2.9793,0.635,0.7693,9.7557,1.4824477,-0.10145599,0.5284857,-0.008993,-0.05013,-0.870347,0.489796,0
10881,1.255031,1.3356389,9.192288,0.18069999,-0.0938,-2.6739,0.7606,1.2608,9.695399,0.20127137,-0.80677843,0.37355283,-0.001359,-0.075279,-0.862979,0.499597,0
10921,-1.553406,1.3232849,15.153822,-2.912,0.0477,6.4202,0.8918,1.2760999,9.6821995,0.024399703,1.2400739,0.92457074,-0.006099,-0.079399,-0.858397,0.506766,0
10961,1.0725545,2.948402,14.372287,0.9244,1.7282,4.1611,0.5955,1.2725999,9.7053995,-0.001919862,-0.12231267,0.3844262,0.00819,-0.071355,-0.849274,0.523042,0
11002,-0.9781176,1.434146,15.135223,-1.7644,0.1384,5.8578997,0.6563,1.2442,9.7052,-0.20868902,0.41826814,0.65334654,0.005328,-0.071713,-0.845302,0.529427,0
11041,-0.7577457,2.0292296,10.696862,-1.3809999,0.83769995,1.6595,0.51809996,1.1431999,9.7259,-0.1961052,0.22511257,0.7230026,0.009423,-0.063429,-0.838545,0.541045,0
11081,-1.070553,1.0338833,7.3910155,-1.3973,-4.00E-04,-1.8324,0.4951,1.0596,9.7366,-0.14987142,0.14983651,0.7044323,0.008919,-0.059069,-0.831124,0.552868,0
11121,-1.0101615,1.0749677,4.024816,-1.413,0.23689999,-5.5228,0.42249998,0.9693,9.7494,-0.33311355,0.47043604,0.5466546,0.010172,-0.053025,-0.823764,0.564355,0
11161,2.4521606,0.10787316,4.290879,1.9753,-0.6022,-5.7833,0.2899,0.85709995,9.7648,-0.025691247,0.008237954,0.208881,0.013007,-0.044317,-0.817803,0.573641,0
11201,3.186711,-1.0951653,8.28209,2.7925,-1.6944,-3.1553,0.3259,0.8412,9.764999,-0.37405896,-0.046373397,-0.07670722,0.011136,-0.04468,-0.816521,0.575475,0
11241,2.5380933,-1.4578582,9.149969,2.6357,-2.1578,-0.505,0.267,0.775,9.7723,0.40470695,-0.42367867,-0.16210619,0.011612,-0.040189,-0.81718,0.574861,0
11282,1.3293757,1.3298354,11.670546,0.22029999,0.015999999,1.8537999,0.5151,0.945,9.747399,0.25220007,-0.84163266,0.19893263,0.006127,-0.054616,-0.817942,0.57266897,0
11321,3.5699751,1.4848552,16.762054,3.0841,1.0688,5.3224998,0.8188,0.9022,9.730599,-1.4695148,0.10782644,-0.17893115,-0.007686,-0.061766,-0.816246,0.57434,0
11361,0.5923159,0.16726851,19.142313,-0.0712,-0.44039997,10.517,0.68909997,0.4306,9.7729,0.28995153,0.3304781,-0.1497318,-0.016289,-0.038133,-0.819752,0.571215,0
11401,0.17087896,2.1562753,10.204691,-0.3622,1.3627,1.2032,0.6662,0.677,9.7605,0.7883478,-0.46451938,-0.22869049,-0.008283,-0.047774,-0.821169,0.56862,0
11441,-1.6490208,0.82132614,9.913748,-2.1650999,0.2525,0.038399998,0.7823,0.84569997,9.7387,-0.4094019,0.17634806,0.09040806,-0.008477,-0.05823,-0.822824,0.565241,0
11481,-0.291518,0.99395764,9.049374,-2.3813999,-0.3969,0.0691,0.7535,0.7696,9.7473,-0.019041542,0.20500638,0.33046064,-0.009424,-0.054186,-0.822617,0.565929,0
11521,-0.19026242,1.7534463,4.4859676,-0.6332,0.90779996,-4.5903997,0.643,0.84749997,9.7487,0.46034804,0.79433423,0.030473448,-0.002212,-0.054277,-0.819429,0.570599,0
11561,-0.3340007,0.3917584,3.4939544,-0.9338,-0.4852,-6.2549,0.3356,1.0344,9.746099,0.7950847,0.47582912,0.15046483,0.016219,-0.053110998,-0.818311,0.572086,0
11602,-0.7396455,-0.18198805,4.434167,-0.4711,-1.7235,-5.447,0.2455,1.3999,9.7031,1.2819792,-0.16877334,0.122853726,0.030911,-0.065757,-0.81572,0.573864,0
11641,-0.7151576,1.9120957,4.0762815,-2.1999,-0.078499995,-6.2407,0.3367,1.8535,9.624,0.46588072,-1.3374283,0.6266954,0.040947,-0.087381996,-0.811278,0.576641,0
11681,1.0393803,2.320374,17.343855,0.6329,0.7072,6.5972,0.9655,1.8914,9.5739,-0.5689599,-0.3475125,0.437938,0.016706,-0.107635,-0.805579,0.582388,0
11721,0.57331556,2.6098714,13.849058,-0.3978,0.56049997,4.6678,0.8293,1.6557,9.630199,-0.48692942,1.0667801,0.629837,0.016298,-0.093431,-0.80022,0.592158,0
11761,-1.1429536,2.423344,13.216722,-1.4771999,1.0946,3.5985,0.63379997,1.5041,9.6698,-0.054646257,-0.5431639,0.15840608,0.020475,-0.080963,-0.795386,0.600322,0
11801,0.05473145,2.2674527,10.905311,-1.4226999,0.6591,1.7508999,0.8049,1.459,9.664,-0.5428323,0.1826487,0.64578927,0.012509,-0.084349,-0.792343,0.604086,0
11841,1.5754517,1.8894465,10.437848,1.1705999,0.9982,0.894,0.6925,1.1298,9.716599,-1.041595,0.7796211,0.042498767,0.00761,-0.067293,-0.78663,0.613698,0
11882,-0.22633825,0.77907324,5.6741242,-0.5426,0.1906,-3.3332,0.3857,0.7998,9.7663,-0.39235002,0.70954615,-0.2462136,0.009548,-0.044304,-0.788146,0.613817,0
11921,1.206352,0.3685634,3.3462322,0.8222,0.0035,-6.8431997,0.129,0.63379997,9.7852,-0.6970147,0.12552407,-0.31998867,0.014544,-0.029621,-0.791255,0.610594,0
11961,0.81451696,-0.9088581,6.831165,0.538,-1.3124,-3.2681,0.0699,0.371,9.7993,-0.4625297,0.24223424,-0.15968017,0.008628,-0.017213,-0.795391,0.60579,0
12001,1.2962303,-1.035904,9.892095,0.98929995,-1.0476,0.5922,0.0109,0.2729,9.8028,0.7220253,-0.28763026,-0.21722367,0.00795,-0.011435,-0.79743,0.60325,0
12041,0.07218039,-1.1295269,10.651296,0.35439998,-1.967,-0.2947,0.2339,0.5646,9.787499,-0.017034413,-0.68835783,-0.36144024,0.007671,-0.03022,-0.800863,0.598034,0
12082,2.6343977,-0.17956513,17.314053,1.5677999,-0.96489996,7.6797,0.4032,0.4942,9.7858,-0.121387646,0.23146556,-0.10218903,-0.001577,-0.032501,-0.80408597,0.593621,0
12121,0.92985046,-0.32924104,16.395359,1.2758,-0.7032,6.0499997,0.39119998,0.46789998,9.7876,-0.21916099,-0.18767525,-0.67207396,-0.002103,-0.031042,-0.808376,0.587843,0
12161,0.081852965,1.4231422,14.16474,-0.3827,0.6149,5.0491,0.4023,0.4441,9.7883,0.27970648,-0.07850491,-0.17821556,-0.003592,-0.030358,-0.814527,0.579318,0
12201,1.5220419,2.7629948,9.767165,0.9223,2.1271,0.4793,0.48979998,0.55979997,9.778299,0.18371336,-0.638773,-0.28644344,-0.003951,-0.037749,-0.81647,0.576137,0
12242,-0.08597099,1.2259845,8.530732,-0.0175,0.9946,-1.0498999,0.6843,0.5351,9.768,-0.64922756,0.5667608,-0.48068112,-0.013125,-0.042351,-0.820789,0.569507,0
12281,-1.525614,1.5423447,4.977909,-2.4271,0.91969997,-4.3529,0.3579,0.2963,9.7956,-0.40329322,1.020337,0.17379989,-0.00654,-0.022778,-0.825264,0.564249,0
12321,0.29548278,1.9405292,4.609164,0.26729998,1.8649,-5.1365,0.056199998,0.1944,9.8045,0.26453954,0.22242476,-0.040718533,0.003253,-0.009795,-0.823925,0.566604,0
12361,-0.26820803,-0.022390574,4.977986,-0.20269999,-0.1718,-4.9070997,-0.0424,0.3385,9.8007,0.63723713,0.4249004,0.037297685,0.011554,-0.01301,-0.82432,0.565856,0
12401,-2.3235538,-0.17055334,6.048816,-1.7528,-0.993,-3.9002998,-0.1986,0.6301,9.7843,0.9672091,0.2779786,0.18242182,0.026585,-0.020722,-0.823027,0.567,0
12441,-1.7400675,-0.04600698,10.466683,-1.3226,-0.95059997,-1.2713,-0.1679,0.99969995,9.7541,0.44200462,-1.0597465,0.11648327,0.036141,-0.037046,-0.820502,0.569295,0
12482,-2.2738118,0.522252,13.0083685,-2.6678998,-0.8674,4.5116,0.0594,1.1616,9.7374,0.2918365,0.83154464,0.75942767,0.031579,-0.050324,-0.817339,0.573084,0
12521,0.21313183,1.1374853,13.770356,0.26049998,0.1205,3.5447,-0.074099995,1.1934999,9.733399,-0.3464304,-0.7196865,0.41154864,0.038832,-0.047154,-0.808365,0.585503,0
12561,-0.52426314,0.28589642,16.400436,-0.6709,-0.9657,6.8707,0.2198,1.0148,9.7515,-0.6288945,0.09765117,0.59234726,0.021623,-0.048406,-0.80483,0.591132,0
12601,1.0980383,2.3897197,13.083747,0.6453,1.5619,3.6411998,0.198,0.77199996,9.7741995,-0.32637656,-0.19367918,0.5267229,0.015651,-0.037539,-0.797785,0.601568,0
12641,1.1758404,2.1544368,9.291093,0.6392,1.41,0.4218,0.3021,0.6983,9.776999,0.2505769,-0.04363323,0.27159068,0.00947,-0.037653,-0.792606,0.608495,0
12681,1.3607206,1.2561897,4.6193724,1.4362999,0.8024,-4.7317,0.2307,0.7862,9.7723,0.14664257,0.9088453,-0.25055948,0.015232,-0.038943,-0.790313,0.611273,0
12722,0.34582806,-0.5695423,1.1790485,0.38799998,-1.2838,-8.1886,-0.15269999,0.8621,9.7674,0.29059732,0.7367209,-0.28921852,0.032937,-0.030197,-0.793187,0.607335,0
12761,1.8795729,-1.4504648,3.5485902,2.1227999,-2.2693,-6.8413997,-0.3674,0.9454,9.754,0.12173671,-0.075118974,-0.5123414,0.044075,-0.02719,-0.79659,0.602296,0
12801,2.8539937,-0.09174581,8.023478,2.5614,-1.4595,-1.9892,-0.2863,1.0476,9.7463,0.5479287,-0.8075289,-0.5607394,0.043556,-0.03433,-0.802948,0.593463,0
12841,1.2129313,1.4443644,13.393308,1.2674999,0.20789999,3.5066,-0.0416,1.2041999,9.7323,0.40893063,0.04956735,-0.58444095,0.037624,-0.048714,-0.810566,0.582403,0
12882,2.4103675,2.5958223,9.971754,1.5164,0.8423,0.7693,-0.045399997,1.3445,9.7139,0.19530234,-1.1181626,-0.55208254,0.041512,-0.054805,-0.815157,0.575144,0
12921,-0.29447722,0.5229128,19.376886,-0.24059999,-0.506,9.3029995,0.39749998,1.1434,9.7316,-1.0628008,-0.10051351,-0.6948505,0.01592,-0.059758,-0.826577,0.559415,0
12962,-0.034016818,2.4185555,14.185597,-0.675,1.2300999,5.6373,0.42,0.8684,9.759,0.35105553,-0.70820224,-0.4359658,0.006488,-0.048816,-0.833992,0.549574,0
13001,0.45182416,2.8706286,9.129178,-0.3284,2.0228,-0.23169999,0.7403,1.027,9.7245,0.18748327,-0.71671945,-0.5532694,-0.00336,-0.064598,-0.838765,0.540636,0
13041,-1.5777406,1.6845987,5.8634477,-2.1692,0.6346,-3.1102,0.84529996,1.0814999,9.7101,0.16331045,0.1685639,-0.4371177,-0.00717,-0.069794,-0.844601,0.530778,0
13081,-0.5688336,1.7413509,3.0939217,-1.16,0.589,-6.8366,0.8462,1.1662999,9.7002,-0.15709709,-0.20575686,-0.35161403,-0.005464,-0.073467,-0.84841,0.524186,0
13122,-2.4446812,0.56072205,4.3382454,-3.3585,-0.3708,-5.2409997,0.7499,1.0375999,9.7227,-0.70783573,1.2672662,0.37760198,-0.005039,-0.065223,-0.851364,0.520479,0
13161,0.42062292,0.12977532,7.362831,0.3065,-0.40379998,-3.2280998,0.34059998,0.7862,9.7691,0.03775147,0.17566739,0.29256955,0.006504,-0.043246,-0.847409,0.529135,0
13201,-3.6422417,-0.27793807,6.857233,-4.2235,-1.3514999,-2.1734,0.3597,0.94939995,9.7539,0.6574132,-0.34686673,0.71157074,0.010394,-0.050784,-0.843947,0.533915,0
13241,-0.12833878,0.21174319,17.969557,-0.50369996,-0.5087,6.7105,0.63119996,0.99909997,9.7351,-0.63346726,-0.56684804,0.5806187,8.18E-04,-0.060359,-0.83648497,0.544653,0
13282,0.71419036,-0.001187524,15.6101,-0.6328,-1.2336999,6.8134,0.6328,0.84139997,9.7499,0.014608406,0.9903173,1.2893795,-0.0028,-0.053687,-0.828231,0.557801,0
13321,0.51188034,1.7641149,14.771497,0.46859998,0.9693,4.824,0.3453,0.7958,9.7682,-0.011047934,0.15603243,0.81086254,0.009121,-0.043325,-0.814895,0.577915,0
13361,0.27927884,2.4293678,11.592485,-0.1715,1.5663999,2.243,0.30879998,0.78709996,9.7701,-0.19922933,0.3482281,0.8724377,0.01108,-0.041706,-0.805192,0.591441,0
13401,1.1718564,2.1715121,9.20063,1.0774,1.6651,-0.3911,0.1484,0.61969995,9.7859,-0.62353635,0.49083894,0.6100973,0.013117,-0.029745,-0.79543,0.605172,0
13442,0.97449756,1.4851137,7.292068,0.8411,1.0903,-2.0886,0.0414,0.4394,9.7967,0.09204867,-0.07169812,0.37280232,0.012096,-0.018985,-0.788934,0.614064,0
13481,1.834265,0.43722913,2.8959308,1.4678999,0.1564,-6.3801,0.022599999,0.5202,9.7928,0.23650956,0.3029368,-0.006352998,0.01551,-0.021559,-0.785253,0.618604,0
13521,1.0092039,-2.0435276,5.3831997,1.1955999,-2.2698,-5.2204,-0.0482,0.5635,9.790299,-0.118490405,0.17240362,-0.39301324,0.019643,-0.021126,-0.787445,0.615709,0
13561,1.2196829,-1.8857785,7.64301,1.1297,-2.6028,-2.1215,-0.1883,0.5336,9.790299,0.25254914,0.57690114,-0.25139722,0.024223,-0.015699,-0.791772,0.610133,0
13601,2.251105,0.19435172,10.257775,2.8441,-0.62979996,-0.8768,-0.33359998,0.62,9.7813,-0.1306728,-0.21406463,-0.5780181,0.032707,-0.014859,-0.795111,0.605398,0
13642,0.4123294,0.12894212,16.690067,0.44219998,-0.4114,6.7177,-0.27539998,0.5585,9.786799,0.21951006,-0.12782791,-0.501852,0.028266,-0.014499,-0.802515,0.595785,0
13681,2.316572,0.2918436,17.259138,2.5883,-0.24479999,6.7718997,-0.067999996,0.69589996,9.7816,0.121789075,-0.96890205,-0.58009505,0.023673,-0.026687,-0.808563,0.587326,0
13721,-0.72246474,1.6977284,13.630707,-0.57839996,0.5394,4.8619,0.088,0.7256,9.7793,0.10999065,0.2470339,-0.2603333,0.017775,-0.032783,-0.814686,0.578701,0
13761,-0.10332417,3.3239276,6.0256696,-0.43609998,2.6575,-2.9036999,0.033999998,0.7453,9.7782,-0.7178539,-0.4423188,-0.25436428,0.020468,-0.032098,-0.817111,0.57522,0
13801,0.9532083,0.24009055,11.608517,0.75699997,0.1832,0.9206,0.2726,0.30699998,9.797999,-1.9789242,-0.068207465,-0.5071229,-0.002504,-0.020791,-0.821549,0.569752,0
13841,-2.73799,-0.18733193,9.475341,-2.4712,0.0243,0.2359,0.117599994,-0.4362,9.7962,-1.1676078,1.1459832,-0.43851396,-0.01744,0.015063,-0.827987,0.560273,0
13882,-2.861454,0.19334614,8.109257,-2.9521,0.7812,-1.1474999,-0.2252,-0.7224,9.7774,0.9307492,0.5202652,0.45413467,-0.01092,0.037033,-0.830893,0.55509,0
13921,0.38964197,-0.24876714,2.5402386,0.75479996,0.2219,-6.9867,-0.48999998,-0.24149999,9.7914,1.8326131,0.5717873,0.6898763,0.013671,0.024286,-0.824938,0.564534,0
13961,-3.645306,-1.1607281,2.8862581,-2.0578,-1.9986,-6.9209,-0.5409,0.5766,9.7747,2.2339342,-0.89992666,0.5473178,0.039485,-0.008287,-0.818708,0.57279,0
14001,-3.875724,0.6628778,8.706026,-4.5618,-1.3616999,-3.3776,-0.1453,1.2734,9.7225,5.24E-05,-0.8729439,1.4714173,0.044031,-0.048479,-0.80996,0.582817,0
14041,1.0092901,0.8889096,13.9234705,1.1281999,-0.1458,4.9033,0.0976,1.2343,9.7281,-0.20699605,0.58634335,1.0312452,0.034247,-0.053185,-0.793883,0.60477,0
14081,-0.6824624,0.9892937,13.799595,-0.48889998,-0.0779,3.3851,-0.0504,1.0879999,9.7459,-0.74778634,0.074455746,0.87657416,0.036587,-0.041893,-0.781644,0.621239,0
14121,-0.59856,1.3017179,14.457444,-0.6404,0.106599994,5.2774997,0.022599999,0.8936,9.7657995,0.11307988,-0.43936917,0.8831017,0.028103,-0.035942,-0.771146,0.63502,0
14162,0.79346716,2.8828773,11.395126,0.144,1.7588999,1.6679,0.1697,0.8692,9.7664995,-0.7558672,0.12487831,1.0035818,0.022239,-0.039353,-0.759392,0.64906,0
14201,1.9835387,2.6080902,12.079169,1.8288,2.1108,2.6439998,0.112799995,0.5467,9.7907,-0.5088333,0.57880354,0.6564183,0.014199,-0.024681,-0.747763,0.663354,0
14241,1.3614867,1.5844349,4.1671467,1.4994,1.2378,-4.1934,-0.1363,0.49789998,9.793,0.5909161,0.40709805,0.14196508,0.022208,-0.014148,-0.740739,0.671276,0
14281,0.67771226,-1.2704879,4.847808,0.8771,-1.3944,-5.8097997,-0.23969999,0.65889996,9.7815,-0.040701076,0.35129988,-0.044820055,0.031662,-0.01665,-0.739511,0.672192,0
14321,0.97978395,-3.0442178,6.342355,1.0713,-3.8941998,-3.5561,-0.3848,0.70699996,9.7734995,0.8023104,-0.003612832,-0.15812683,0.038783,-0.013539,-0.740206,0.671124,0
14361,3.6341395,-0.9203215,5.706158,3.892,-2.2171,-3.8569,-0.3125,1.0892999,9.7409,1.1226132,-0.772762,-0.641042,0.049048,-0.030731,-0.742827,0.666975,0
14401,1.0814513,1.6243988,10.093916,0.268,-0.509,-0.020299999,-0.13069999,1.372,9.7093,-0.03436553,0.12620476,-0.21062633,0.051161,-0.048425,-0.751337,0.656146,0
14441,2.7842553,2.0466497,14.861835,3.4901998,1.3946999,2.9601998,-0.0481,1.3019999,9.7197,-1.1811167,-1.2227253,-0.84836966,0.045273,-0.048816,-0.756156,0.650995,0
14482,-0.24433307,0.09592129,20.418663,-0.15609999,-0.84349996,11.611,0.2346,0.84349996,9.7674,-0.5649631,0.57395154,-0.56309557,0.018308,-0.040762,-0.768302,0.638524,0
14521,-1.1521186,1.6271762,12.02236,-1.1415,0.6953,3.353,0.0628,0.74619997,9.778,0.3199712,-0.32485813,-0.44432592,0.021554999,-0.031548,-0.774851,0.630987,0
14561,0.04396712,1.3253534,10.827701,-0.20099999,0.867,-0.23529999,0.20099999,0.73139995,9.7772,-1.3930869,0.017261306,-0.286234,0.015315,-0.035544,-0.780102,0.624453,0
14601,0.25445575,1.119998,12.254904,-0.15789999,0.81149995,3.5425,0.049999997,0.2083,9.804299,-0.44303438,0.9239075,-0.14618878,0.004602,-0.009906,-0.783352,0.621481,0
14641,-0.8728972,0.5922201,5.1108255,-0.3615,0.5628,-3.9864998,-0.2268,0.20199999,9.8019,0.8322079,0.43561673,-0.3623827,0.015461,-9.61E-04,-0.786541,0.617342,0
14681,-0.06204813,0.99957925,4.072422,-0.125,0.2436,-5.5657997,-0.4437,0.52129996,9.7827,1.2604419,0.53454196,0.30180234,0.034205,-0.007058,-0.788213,0.61440897,0
14721,-0.5715055,0.32943258,2.2986636,0.81589997,-0.445,-7.5990996,-0.5805,1.102,9.7272,1.8815347,-0.068783425,-0.10770427,0.0581,-0.025967,-0.784924,0.616314,0
14762,-2.291203,1.2028469,2.6899142,-2.5579,-0.75299996,-7.5731997,-0.5017,1.8219,9.6228,1.3766459,-1.466129,0.19572122,0.077779,-0.057636,-0.783629,0.613639,0
14801,0.5050233,1.380832,14.566773,0.6658,-0.5442,4.2276,0.079399996,2.1819,9.5604,-0.17936748,0.274645,0.058974676,0.065734,-0.090714,-0.78291,0.611964,0
14841,-2.3780265,1.9067614,11.503861,-2.6921,-0.46629998,1.5802,-0.1126,2.0942,9.5796995,-0.73878044,0.6106907,0.59013075,0.071045,-0.080752,-0.780615,0.615688,0
14881,-0.9118269,3.0081038,14.750275,-0.52239996,1.3183,5.0737,-0.2719,1.8001,9.6361,-0.63723713,0.25713935,0.124354705,0.06875,-0.062967,-0.774597,0.625545,0
14921,-2.1329944,2.7018185,13.037511,-1.5961,1.0284,3.0895,-0.3455,1.5408,9.678599,-1.1366457,0.47242573,0.2006605,0.063407,-0.050044,-0.773766,0.628299,0
14962,-0.91225785,3.002415,13.401458,-0.7614,1.7801,3.8125,-0.5428,1.0931,9.7303,-0.8262738,0.27625072,0.41626102,0.05691,-0.025476,-0.770403,0.634499,0
15001,-0.6750308,2.1984804,11.107305,-0.0319,1.5669999,1.8397,-0.5564,0.87479997,9.751599,0.16629498,-0.23191935,0.25837854,0.050447,-0.016037,-0.766036,0.640613,0
15041,-2.160001,-0.26592878,5.417006,-1.6295999,-0.99679995,-3.6118,-0.5376,0.99679995,9.741,0.4403291,0.35739106,0.55260617,0.053837,-0.02115,-0.762377,0.644542,0
15081,1.5021222,-0.6537894,4.778999,1.9272,-1.6786,-5.1358,-0.6425,1.1687,9.7155,0.2848203,0.6010739,0.59381336,0.063939,-0.023607,-0.753724,0.653646,0
15121,1.0949929,-1.1449072,6.8811274,2.0786,-2.5777,-3.2312,-0.9116,1.3224,9.6742,0.964626,0.44753733,0.37706092,0.079772,-0.019714,-0.745977,0.660882,0
15162,2.3285623,-0.33366552,6.782821,3.781,-2.3330998,-3.7194998,-0.91749996,1.8133999,9.593699,1.3473942,-1.0459409,-0.13821262,0.097012,-0.037992,-0.741709,0.662579,0
15201,2.796169,3.259878,8.46471,2.9726999,0.5754,-1.1031,-0.5897,2.2488,9.526999,0.440748,-0.7844208,0.03117158,0.099291,-0.066295,-0.742739,0.65885,0
15241,0.9835381,2.4912627,13.088756,1.5078,0.6896,1.8704,-0.2329,2.2817,9.534599,-1.5050846,-1.0401639,-0.53613025,0.086233,-0.080198,-0.746637,0.654725,0
15281,-1.4235158,0.44204623,20.932783,-1.4412999,-1.5758,11.6798,-0.0591,1.6347,9.6692,-1.0541265,0.4617094,-0.08323475,0.056764,-0.061503,-0.756217,0.648945,0
15321,-0.38978562,3.393551,12.108838,-0.37919998,1.6456,3.7554,-0.1012,1.4433999,9.6993,0.5869193,-0.8497659,-0.21373302,0.051886998,-0.052727,-0.758021,0.648021,0
15361,1.2893064,4.2816944,7.978486,0.9449,2.6669,-1.5722,0.1436,1.5498999,9.6823,-0.96551615,0.37147588,-0.36423275,0.045557998,-0.065291,-0.761362,0.64342,0
15401,-0.14048217,2.1220577,6.8337603,0.47329998,1.5834,-3.0328999,-0.0713,1.1329,9.7407,-0.92799157,0.08908161,-0.8853357,0.039736,-0.042217,-0.768504,0.637212,0
15442,-1.1316721,0.3167816,5.9968243,-0.97309995,-0.51919997,-3.326,-0.095699996,0.8526,9.769,-0.30258772,0.15964526,-0.45212755,0.031045,-0.030883,-0.779242,0.62519,0
15481,0.8048636,0.4274608,6.7443895,0.7734,-0.2104,-3.501,-0.2341,0.72029996,9.7773,-0.019111356,0.5058837,0.007836528,0.032221,-0.021343,-0.782269,0.62174,0
15521,-3.3765235,-1.094131,4.117548,-2.4406,-2.0801,-4.4154997,-0.3346,0.8935,9.760099,1.4367725,0.061086524,0.18214256,0.04172,-0.025129,-0.782671,0.620526,0
15561,-1.454104,1.7856817,2.454373,-2.0505,0.2031,-8.2676,-0.3423,1.4051,9.6994,0.78892374,-1.319626,0.2820103,0.058625,-0.045056,-0.777587,0.624412,0
15601,-1.9255798,0.8432857,15.414838,-2.2921999,-0.899,5.4367,0.21319999,1.5854,9.6751995,-0.25068164,0.17826793,0.41423646,0.042355,-0.070026,-0.77639997,0.624903,0
15641,1.0434506,2.0979624,12.726369,0.6576,0.5693,2.7501,0.1563,1.4704,9.6945,-0.53166217,-0.17788395,0.32578316,0.041503,-0.063201,-0.770942,0.632401,0
15682,-1.4720606,1.8178695,16.419214,-1.5277,0.45029998,6.8364997,0.2332,1.2265999,9.7268,-0.68734556,0.21242402,0.4585329,0.030829,-0.055845,-0.768175,0.637053,0
15721,-0.25847802,3.875006,12.397559,-0.579,2.7417998,2.8937,0.1573,0.9748,9.7568,-0.7112391,0.05136504,0.6718121,0.026095,-0.043129,-0.761193,0.646563,0
15761,0.53073704,1.5971049,13.30795,0.3595,1.4214,3.4836,0.1504,0.6379,9.784699,-0.925391,0.40163517,0.56983256,0.015595,-0.029578,-0.75353,0.656561,0
15801,-0.10395624,0.37343803,10.154767,0.35819998,0.2342,0.9478,-0.0051,0.3541,9.8001995,0.052098077,0.44729298,0.39908698,0.01221,-0.01331,-0.746559,0.665073,0
15841,-0.20030849,0.12136687,4.323172,-0.2705,-0.361,-4.6073,-0.1609,0.4493,9.795,0.54881877,0.39255947,0.48364818,0.021474,-0.011464,-0.74060297,0.671501,0
15882,-0.40603745,-2.1709952,5.231915,0.2658,-2.2898998,-5.1036,-0.3443,0.613,9.7814,0.4259476,0.4627915,0.1990548,0.034113,-0.011091,-0.73481697,0.677315,0
15921,1.3998802,-1.0300717,5.6188946,1.392,-2.7621999,-3.4852,-0.44079998,0.9382,9.751699,1.8916576,-0.27473226,0.24354324,0.049113,-0.019732,-0.730994,0.680328,0
15961,2.3586717,1.0301963,7.7104306,2.842,-0.81729996,-4.7191,-0.18439999,1.6115999,9.6715,0.34025192,-1.1649549,-0.27003735,0.063065,-0.05395,-0.729705,0.678706,0
16001,4.394797,3.3695326,8.971696,4.1717997,1.2964,1.0639,0.0548,1.773,9.6448,0.8657008,-0.3765897,-0.23989551,0.059473,-0.068633,-0.73208797,0.675128,0
16041,2.0355694,2.0616567,15.653012,2.2849,0.6947,4.035,0.3432,1.8942,9.6158,-1.4372437,-0.580479,-0.81197953,0.05193,-0.083855,-0.739054,0.666385,0
16081,-1.2768469,1.7778001,17.87306,-1.5619999,-0.0654,9.0526,0.3362,1.3500999,9.707399,-0.56400317,0.069097586,-0.3140022,0.032525,-0.063245,-0.750513,0.657017,0
16122,1.6946255,4.900931,10.420112,0.65999997,3.3378,1.2846999,0.42839998,1.2418,9.7182,-0.22973768,-0.83189374,-0.3541971,0.024957,-0.062316,-0.754589,0.652754,0
16161,-0.5022269,2.2731414,10.009256,-0.5886,1.7888,0.092,0.569,1.0452,9.734099,-1.1321253,0.74412113,-0.61859703,0.012326,-0.059529,-0.761671,0.645105,0
16201,-0.043402087,1.5972486,6.582226,-0.4472,0.84739995,-2.4517,0.2609,0.7118,9.7772,-0.10430088,0.301558,-0.5821895,0.012899,-0.03647,-0.769838,0.637065,0
16241,3.45E-04,1.4005505,7.641181,-0.2501,0.7022,-2.0444999,0.1423,0.68039995,9.781899,0.13114405,0.94682366,-0.19528489,0.016203,-0.031548,-0.776672,0.628904,0
16281,-0.25923458,-0.12966996,2.7732806,0.6041,-0.4886,-6.4142,-0.2511,0.8318,9.768,1.0730634,0.50485396,-0.28867745,0.036607,-0.025028,-0.77811,0.62656,0
16322,-2.9492352,-1.9842856,4.6997223,-2.5609,-3.2877,-5.1864,-0.3599,1.1551,9.7317,1.2220446,-0.022444934,0.11721631,0.05436,-0.040144,-0.780014,0.622102,0
16361,-0.3280152,1.6268888,6.338668,-1.0835,-0.1029,-4.5041,-0.3187,1.7013999,9.652599,0.38762018,-1.0917907,0.10161307,0.06734,-0.057592,-0.775735,0.624806,0
16401,-3.3233147,-0.99137187,15.857678,-3.04,-2.4652,6.6394997,0.029299999,1.7493,9.6493,-0.27735028,0.49425977,0.44718826,0.054965,-0.070716,-0.776001,0.62434,0
16441,-0.013196839,2.0780234,14.980492,-0.2453,-0.1012,5.1905,-0.058599997,1.6506,9.6665,-0.16968091,0.10560987,0.91629785,0.056157,-0.063161,-0.767708,0.635201,0
16482,-1.0686951,4.2486258,13.057239,-1.0559,2.3611,4.0476,-0.0031,1.6202999,9.6718,0.081611596,-0.22952825,0.87057024,0.054081,-0.062828,-0.756553,0.648655,0
16521,0.072668806,5.3731537,10.614799,-0.19209999,3.964,0.64809996,0.123399995,1.5767,9.6782,-0.8825083,0.117513016,0.8064817,0.048838,-0.064497,-0.745214,0.661899,0
16561,0.19385374,2.6373088,12.887921,0.1715,1.9309,3.0049,0.103,1.1875,9.7339,-0.6917787,-0.044610616,0.42076397,0.037041,-0.048327,-0.736769,0.673396,0
16601,-1.4108456,-0.3405321,7.7702093,-1.3878,-1.06,-1.0145999,0.1424,1.0208,9.752299,0.1314931,0.14243633,0.5256059,0.030138,-0.04314,-0.731757,0.67953,0
16641,1.5632892,-0.43355164,3.7596917,1.0509,-1.4502,-6.0042,0.0473,1.0481,9.750299,-0.1158375,0.6078807,0.6193301,0.035168,-0.040412,-0.722914,0.688857,0
16682,1.266188,-1.303863,5.3651857,1.5238999,-2.152,-4.5917997,-0.1215,1.0438,9.7501,0.29173177,0.41046652,0.2825688,0.041619,-0.033868,-0.71563697,0.696407,0
16721,2.8611763,-1.4006846,7.110444,2.8723,-2.6871,-2.2444,-0.23429999,1.2258999,9.7268,1.2279787,-0.0654673,0.054942966,0.052482,-0.036221,-0.710989,0.700304,0
16761,1.0470611,1.4604535,7.303244,1.3363999,-0.8243,-2.7243,-0.1399,1.6970999,9.657599,0.9441533,-0.5066342,-0.27689648,0.065959,-0.056967,-0.710923,0.697847,0
16801,3.222605,4.418202,8.760499,2.2614,1.7538999,-1.2408999,0.052899998,1.9726,9.606,-0.50611055,-0.89451617,-0.3618591,0.06835,-0.074534,-0.714945,0.691827,0
16842,2.5014524,0.22357056,23.197104,2.6866999,-0.5816,11.6187,0.3042,1.5328,9.6813,-2.379809,-0.073984504,-0.90856606,0.042501,-0.067698,-0.72486,0.684242,0
16881,-0.88732946,0.31374577,18.553158,-0.8232,-1.2344999,11.002999,0.13679999,0.9697,9.7576,1.0137919,-0.14582226,-0.16259487,0.028328,-0.041194,-0.73581797,0.675331,0
16921,1.0389973,5.150857,6.090974,0.12619999,3.1283998,-2.46,0.2856,1.4316,9.6973,0.75410444,-0.7144156,-0.107617,0.038603,-0.06388,-0.736052,0.672796,0
16961,1.838699,4.3492684,8.661523,1.4907999,3.2201998,-2.3789,0.40179998,1.4869,9.684899,-1.4860431,0.7456745,-0.5829225,0.035761,-0.07019,-0.739435,0.668602,0
17001,0.5127039,1.9741055,9.79896,0.8179,1.2502999,0.69909996,0.0646,1.0052,9.7547,-0.2727775,0.69586277,-0.835716,0.03147,-0.04067,-0.748984,0.660588,0
17042,-1.5405827,-0.67751116,7.006526,-1.4641,-1.3912,-2.386,-0.18329999,1.0282999,9.7508,0.8996474,0.4349535,-0.44024184,0.041234,-0.03383,-0.759057,0.648835,0
17081,-1.5341661,-2.075179,3.2296631,-0.7809,-3.3353,-6.3447,-0.31739998,1.4818,9.6888,1.729569,-0.28382543,-0.13013175,0.061233,-0.047507,-0.762577,0.642237,0
17121,-2.6038284,0.9749668,3.5476897,-2.2833,-1.9923999,-5.6369,-0.24679999,2.1297,9.5694,1.694261,0.13377948,0.4656364,0.080077,-0.075385,-0.760074,0.640462,0
17161,-0.053017203,3.1285896,5.0790496,-0.551,0.2883,-6.7422,-0.0471,2.7615,9.409599,0.60372686,-2.038335,0.0776846,0.094142,-0.106665,-0.753193,0.642229,0
17201,-1.0873027,3.0122504,12.590666,-1.2324,0.19659999,3.4171,0.42819998,2.7942998,9.3903,-1.3217379,1.0626088,0.20228367,0.07636,-0.124074,-0.754267,0.640199,0
17241,-1.0370054,2.7292175,14.415373,-0.9934,0.5719,4.3835998,0.0813,2.2621999,9.5418,-1.1173773,-0.024364796,0.046739917,0.072523996,-0.090791,-0.75324,0.647398,0
17281,-2.2232654,1.8809519,14.537756,-2.4377,-0.152,5.7943,0.1724,1.9368,9.611899,-0.3773751,-0.11677998,0.42896703,0.058067,-0.08097,-0.753971,0.649306,0
17321,-0.6668809,2.6652637,11.992959,-0.99149996,0.9923,2.1929998,0.20699999,1.7142999,9.653399,-1.0696949,0.16332792,0.68196994,0.049989,-0.072892,-0.747997,0.657789,0
17362,-0.68768173,1.1028746,11.356637,-0.64599997,0.13319999,1.9527999,0.19489999,1.3082,9.717,-0.7655014,0.14571753,0.6043726,0.037406,-0.056301,-0.740552,0.668589,0
17401,-0.6168421,0.4350456,6.826348,-0.8343,-0.5936,-2.1566,0.1086,1.0741,9.747,-0.17081538,0.6393839,0.7789055,0.033236,-0.043982,-0.731962,0.67911,0
17441,0.65493864,0.14215812,3.5645928,0.9575,-0.56979996,-6.4951,-0.084699996,1.0404999,9.750899,-0.10637782,0.25549874,0.40563196,0.039839,-0.035415,-0.721855,0.689987,0
17481,1.0899076,-0.4051564,6.8835793,0.8124,-1.5561,-3.1543,-0.22399999,0.9873,9.7542,0.15100588,0.5226737,0.46699774,0.04335,-0.028153,-0.715775,0.696414,0
17521,4.6795726,1.5153476,6.0806212,4.7735,0.114099994,-2.5902,-0.30159998,1.1901,9.7294,1.2883148,-0.4254938,-0.061191242,0.053678,-0.032445,-0.710301,0.701097,0
17561,1.0250535,0.8233851,10.311204,2.0075998,-0.524,-1.0986,-0.1541,1.5045999,9.6893,-0.720245,0.38308233,-0.23607324,0.059443,-0.049492,-0.71271,0.69718,0
17602,1.4847689,1.097004,12.809362,1.571,-0.641,3.5928,-0.2373,1.3176,9.7148,0.40479422,-1.1590906,-0.13529792,0.055648,-0.039812,-0.715144,0.695619,0
17641,-0.24278162,-0.07129932,15.928941,0.24239999,-1.0433999,5.127,0.189,1.3571999,9.7104,-0.84145814,-0.42914155,-0.3247185,0.041098,-0.056715,-0.719284,0.691176,0
17681,-0.66904527,1.0722384,15.6302395,-1.074,-0.3326,6.3947997,0.2208,1.0583,9.746799,-0.057595864,-0.2955017,-0.02708751,0.029121,-0.046899,-0.722768,0.688881,0
17721,0.75954616,2.6563094,11.254721,0.25169998,1.431,2.0598,0.4053,1.0892,9.7375,0.028920105,-0.57176983,-0.30452505,0.023276,-0.054605998,-0.724122,0.687111,0
17761,0.42304587,3.0562751,9.80167,-0.1862,1.8498,0.11229999,0.4804,1.0038999,9.743199,-0.81772166,0.91233593,-0.26899013,0.017123,-0.054195,-0.728885,0.682272,0
17801,0.4177116,2.68481,7.4737115,0.368,2.3125,-2.0785,0.112399995,0.75689995,9.7767,0.16289158,0.52963763,-0.5851391,0.022004,-0.032254,-0.733705,0.678345,0
17841,-1.4759009,0.16139792,3.5149658,-1.3356,-0.5007,-5.8041997,-0.1157,0.8831,9.7661,0.3027797,0.88790137,-0.1614255,0.034625,-0.02946,-0.740724,0.670268,0
17882,-0.55559844,-0.18941008,5.6302624,0.0632,-1.0961,-4.2641,-0.4554,0.98819995,9.745999,0.77023125,0.35321975,0.14493214,0.051105,-0.021819,-0.740411,0.669853,0
17921,-2.0667036,0.9190287,2.8621533,-1.8629999,-0.7554,-6.0867996,-0.5003,1.383,9.6957,1.2919276,-0.54288465,0.32077405,0.066521,-0.035072,-0.737386,0.671272,0
17961,0.025091235,1.3229976,11.432974,0.30429998,-0.1136,-0.4872,-0.1572,1.7023,9.6564,-0.45694464,-0.7586597,0.13711306,0.064822,-0.058774,-0.73418,0.673292,0
18001,-1.3373436,0.8968105,14.760647,-1.8255999,-0.907,5.2156997,-0.0473,1.5051999,9.6903,-0.35529667,0.17788395,0.6062052,0.054062,-0.054849,-0.731745,0.677212,0
18041,-0.69384927,2.1599817,14.900267,-0.505,0.69699997,5.0936,-0.0049,1.4114,9.7045,-0.011222467,-0.60938174,0.36259216,0.049761,-0.052244,-0.7246,0.685381,0
18081,-1.3742718,2.6818316,13.73837,-1.6481999,1.1136999,4.4417,0.17719999,1.3672,9.7092,-0.5038242,0.40153044,0.78360045,0.041908,-0.056654,-0.719054,0.691371,0
18121,0.39573282,3.4127526,10.931456,0.0622,2.2028,1.7962999,0.074999996,1.1705999,9.736199,-0.30656707,0.010053096,0.64934975,0.039424,-0.04512,-0.70813197,0.703532,0
18161,0.4612286,2.299056,7.1131063,0.62009996,1.6297,-2.0911,0.0858,1.0474,9.7501,-0.4852888,0.42626175,0.16687092,0.035015,-0.040663,-0.700899,0.711239,0
18202,-1.1006912,-0.63970196,5.178917,-0.93329996,-1.2455,-4.6405997,-0.1257,0.84349996,9.7694,-0.2695661,0.26892033,-0.111247286,0.035214,-0.025577,-0.699911,0.712902,0
18241,-0.45157516,-1.4327382,5.5440617,-0.4145,-2.3402,-4.0387,-0.0953,0.88879997,9.7657995,1.0861183,-0.60405844,-0.16002923,0.035698,-0.028414,-0.701929,0.710783,0
18281,2.1780436,0.8101117,5.0247784,1.247,-0.99649996,-5.581,0.106199995,1.3004999,9.719399,0.40493384,0.013020156,0.013927727,0.043316,-0.050694,-0.703284,0.707774,0
18321,2.5551782,0.031689655,7.211977,3.4648,-0.8077,-3.1859999,0.0949,1.4548999,9.697599,0.044610616,-0.42872268,-0.78972656,0.049151,-0.056048,-0.705365,0.704913,0
18361,1.6202234,-0.64156944,13.210285,0.6378,-2.1483998,3.2516,0.1662,1.4129,9.7029,-0.28680995,0.10904817,0.003560472,0.044333,-0.057655,-0.714156,0.696197,0
18401,2.038452,0.2707555,13.341526,2.5319,-0.90389997,3.1334999,0.204,1.3353,9.7130995,-0.46951103,-0.4429122,-0.33416075,0.040066,-0.056227,-0.715659,0.695029,0
18441,0.09414959,1.8850125,15.833766,-0.152,0.35,6.3854,0.29909998,1.1307,9.7366,-0.3349287,-0.06695083,0.039165188,0.029009,-0.052223,-0.719638,0.691774,0
18481,1.6301832,3.3947577,13.34595,0.85709995,2.2094,3.8999,0.40789998,1.0561,9.741,-0.12948598,-0.78902847,-0.06880088,0.022395,-0.053307,-0.719245,0.692345,0
18522,1.5443846,2.5428627,13.849212,1.1144,1.8036,4.4193,0.6507,0.9226,9.7414,-0.9164724,0.39847612,-0.30426323,0.008509,-0.05703,-0.721957,0.68953,0
18561,-0.99224335,1.4153466,10.454052,-1.2123,0.91539997,1.2443,0.44739997,0.5947,9.778299,-0.21460569,0.13295919,-0.27742007,0.004208,-0.037739,-0.727067,0.685514,0
18601,-0.9448669,1.4780365,6.230795,-1.1538,0.85639995,-2.5516999,0.4281,0.5949,9.7792,0.27295205,0.5334075,-0.020280726,0.004764,-0.037091,-0.730112,0.682303,0
18641,0.41536528,1.3085175,5.189078,0.0232,0.66719997,-4.9481,0.1532,0.66639996,9.7827,0.53688073,0.10677924,0.31342623,0.017582,-0.030132,-0.728315,0.684352,0
18681,0.48642516,0.17126204,5.100866,0.9404,-0.415,-3.8272,0.22649999,1.0231,9.7505,1.9252552,-0.058922317,0.13086478,0.027617,-0.045824,-0.723612,0.688129,0
18721,-3.961839,-0.6740731,0.9223614,-4.2331,-2.7765,-8.327,0.2516,1.7761999,9.6411,1.8410256,-0.39219293,0.35613444,0.053636,-0.074571,-0.718822,0.689098,0
18761,0.15405253,0.47922343,10.307871,-0.4491,-1.9398999,-1.4325,0.64519995,2.3321,9.5034,0.102433376,-0.75558794,0.23153538,0.059511,-0.109173,-0.713024,0.690025,0
18801,-0.19878578,1.1613506,12.148122,-1.4332,-1.5670999,2.9052,0.6879,2.2928,9.5099,-0.22945844,0.496232,0.7821693,0.057262,-0.108839996,-0.708429,0.694983,0
18842,2.3566797,3.964233,14.037817,2.06,1.5918,3.9657998,0.65639997,2.1836998,9.5378,-0.28598964,-0.09328785,0.46595055,0.056061998,-0.102766,-0.698009,0.706455,0
18881,0.2210327,4.6025076,12.579605,-0.22469999,2.1871,4.1749997,0.6954,2.0983,9.5542,-0.2964267,0.42053708,0.64535296,0.052223,-0.100707,-0.693343,0.711621,0
18921,1.985885,5.198166,11.287177,1.3501999,3.5095,1.2136999,0.6012,1.8448,9.6126995,-0.92561793,-0.20755455,0.46523497,0.047695,-0.087238,-0.68219,0.724383,0
18961,1.248241,2.8983152,13.062334,0.84499997,1.7915,3.6199,0.7044,1.4837999,9.668099,-0.82367325,0.21085322,0.1919164,0.031097,-0.078081,-0.678167,0.73008597,0
19001,-0.43958503,0.6261507,9.904956,-1.0133,-0.3994,0.87729996,0.5818,1.2134,9.713799,-0.1226792,0.5477367,0.2338043,0.025434,-0.063899,-0.676243,0.73346,0
19041,0.44965982,0.04004063,4.082085,-0.2782,-1.0698999,-4.7816997,0.3566,1.217,9.724199,0.35206783,0.7931823,0.2682222,0.033685,-0.055352,-0.672135,0.737587,0
19081,2.5907943,-1.0670766,3.1904655,2.214,-2.1204,-7.4607,0.0806,1.3261,9.7162,-0.071314156,0.43697807,-0.14102261,0.047549,-0.048464,-0.668424,0.740674,0
19121,1.3560472,-1.5230762,9.203033,1.4315,-2.7772,0.32569999,-0.0782,1.3258,9.7162,0.7370874,0.43270203,-0.54054594,0.05277,-0.042687,-0.672068,0.737372,0
19162,-2.9452417,-0.10238564,7.3010125,-2.3346,-2.0712,-3.3781998,-0.22479999,1.5906999,9.6741,0.20093976,0.024626596,-0.32004103,0.06736,-0.047094,-0.679748,0.728825,0
19201,3.7158682,3.0617244,8.850865,2.7862,0.73969996,-0.1169,-0.21679999,1.6824,9.6588,0.2361605,-0.67050314,0.002617994,0.070422,-0.050776,-0.68118,0.726949,0
19241,2.061312,0.57338256,17.054838,3.0999,-0.1875,4.9598,0.067499995,1.5604,9.681399,-1.8321768,-0.24214698,-0.8465021,0.055443,-0.057519,-0.687087,0.722169,0
19281,0.11409808,1.3017371,17.945223,0.16219999,0.113199994,8.6392,-0.0151,0.97529995,9.757999,-0.20706587,0.12627457,-0.3048392,0.036153,-0.03424,-0.697971,0.714392,0
19321,0.8326076,3.5583584,10.624759,0.86289996,2.5934,1.2803999,0.1275,1.0252,9.752,-0.025743606,-0.87645197,-0.5623451,0.032592,-0.041475,-0.702996,0.709234,0
19361,-1.1897745,1.9254745,8.747445,-1.2541,1.2116,-0.9271,0.3225,0.8673,9.7628,-1.432479,0.4145157,-0.32964033,0.01936,-0.043083,-0.711268,0.701331,0
19402,-0.3087754,1.7569705,8.737974,-0.7582,1.428,-0.8742,0.1894,0.3568,9.7983,-0.3803247,-0.4827406,-0.2629862,0.005788,-0.019772,-0.715727,0.698075,0
19441,-1.0930872,0.16621506,6.9401107,-1.4777,-0.0916,-2.3332999,0.3401,0.29749998,9.7962,0.064594634,0.6847974,0.16425294,-0.001941,-0.022969,-0.719299,0.694317,0
19481,0.99125695,0.6818591,6.6316323,1.0131999,0.6477,-3.369,0.0262,0.29369998,9.802199,0.5488886,0.29911453,0.07838274,0.009496,-0.011657,-0.715846,0.698096,0
19521,-2.9528837,-1.3557405,4.680061,-2.4455,-2.0453,-4.529,-0.0453,0.6429,9.785399,1.648062,0.15227997,0.3561868,0.024589,-0.021831,-0.714521,0.69884,0
19561,0.25015578,1.0975691,2.5471816,-0.7698,-0.1283,-9.3665,-0.0734,1.2265999,9.7293,0.26145032,-1.4247996,0.32197833,0.046919,-0.04171,-0.7065,0.704922,0
19601,-1.8146613,-0.8112609,16.362606,-1.8834,-1.6421,6.1979,0.3732,1.1812,9.728,-0.7698822,0.39386845,0.39976767,0.029288,-0.056105,-0.704435,0.70694,0
19641,1.5049952,0.78196543,15.091026,1.128,-0.3524,5.4997997,0.24479999,0.931,9.7592,-0.24970426,0.028012535,0.43617523,0.02528,-0.042143,-0.697637,0.714763,0
19682,-0.17415424,1.2024255,15.525594,-0.2172,0.2188,6.1995997,0.28579998,0.84999996,9.7655,-0.02755875,0.079237945,0.31658527,0.021145,-0.040597,-0.69267,0.7198,0
19721,-0.9015223,2.1734946,12.002085,-1.2827,1.2039,2.4271,0.19409999,0.7966,9.7723,-0.38767254,0.35140458,0.5723284,0.0227,-0.03515,-0.687068,0.725387,0
19761,0.14552917,2.2567554,11.46927,0.077,1.7894,1.6496999,0.1191,0.6426,9.7848,-0.39899972,0.10934488,0.3734132,0.019912,-0.02674,-0.67941,0.733,0
19801,-0.8268711,0.5370769,8.118326,-0.89699996,0.2279,-0.99679995,0.033999998,0.5075,9.7934,-0.13315117,0.42160174,0.36042795,0.017943,-0.01874,-0.674132,0.738154,0
19841,-0.13019669,0.30351773,5.686823,-0.46159998,-0.3049,-3.7329,-0.0875,0.501,9.7934,0.4742234,-0.004694936,0.26902506,0.021973,-0.013788,-0.669089,0.742729,0
19881,0.6545939,-0.9025949,5.3904877,0.8365,-1.1948,-4.8792996,-0.1206,0.67509997,9.782599,0.26323056,0.5380152,0.04024729,0.02978,-0.018366,-0.666096,0.745044,0
19921,1.4325753,-0.5412428,6.0959344,1.5623,-1.7364999,-2.4972,-0.29729998,0.8637,9.764,1.3912194,0.1619491,-0.002583087,0.042995,-0.018037999,-0.665203,0.745204,0
19962,1.2583541,0.3095224,5.87991,2.1922998,-1.201,-5.5537996,-0.2898,1.3284999,9.7119,-0.021711895,-0.15070918,-0.3423987,0.060435,-0.034314,-0.66614,0.742581,0
20001,2.2327175,0.71329015,11.535226,1.8556999,-0.8857,1.6068,-0.2474,1.2779,9.7198,-0.24178046,-0.7146774,-0.25610963,0.056842,-0.034543,-0.670798,0.738651,0
20041,1.13466,-0.067085534,20.12406,1.6639999,-0.9199,8.291699,0.0521,1.0278,9.7525,-1.3180028,-0.33484143,-0.42399284,0.036731,-0.037570998,-0.677777,0.733387,0
20081,-0.748437,1.6689597,15.850515,-0.8059,0.4709,7.7355,0.1096,0.7254,9.779099,0.82777476,-0.52094585,-0.033405602,0.023198,-0.029378999,-0.682931,0.729522,0
20121,0.81659514,4.2421618,9.244138,0.101399995,3.0423,-0.026899999,0.3496,1.0372,9.745299,0.07145378,-0.38529888,-0.042917646,0.026423,-0.049255,-0.682939,0.728333,0
20161,1.8323975,2.8272839,10.604351,1.5981,2.3579,0.0994,0.4023,0.9076,9.7562,-1.1062595,0.3127979,-0.5043129,0.019599,-0.046742,-0.685472,0.726332,0
20201,-0.62987614,1.1558727,8.526489,-0.3601,0.7224,-0.3123,0.2719,0.5818,9.7855,-0.10873401,0.23570672,-0.5118178,0.011741,-0.030587,-0.69369197,0.719525,0
20242,-0.85555357,0.38794687,7.4986873,-0.9758,0.1095,-3.0339,0.1814,0.5279,9.7907,-0.26631978,0.48209485,-0.14992379,0.012744,-0.025462,-0.69988,0.713692,0
20281,-0.96750647,-0.8073631,6.9997454,-0.80759996,-1.0864,-2.0254,-0.055299997,0.52739996,9.7923,1.1600505,0.505203,0.17823303,0.021175,-0.01683,-0.700293,0.713342,0
20321,-1.5283914,-1.251727,3.6478536,-0.9134,-2.4048998,-6.4609,-0.1848,1.0712,9.7462,1.4840186,0.16166985,0.37746236,0.045796,-0.031375,-0.696189,0.715708,0
20361,-1.2393441,0.7986195,4.2219925,-2.0135,-1.3082,-6.3992,-0.1831,1.6515,9.6648,0.98576194,-1.1300483,0.51258576,0.067564,-0.051623,-0.688493,0.72024,0
20401,-0.79634976,1.4307749,13.004059,-0.87109995,-0.3629,3.5721998,0.22389999,1.9024999,9.6177,-0.11417944,0.5185722,0.45560074,0.06303,-0.075233,-0.68289,0.723897,0
20441,1.5030799,2.1744044,12.3686,1.0275999,0.1583,2.3659,0.070599996,1.8127999,9.6373,-0.42668065,0.25363123,0.42704716,0.065783,-0.065596,-0.675045,0.731903,0
20482,-0.630537,1.7305481,12.09816,-0.49199998,0.074,3.0398998,0.0311,1.6911,9.659599,0.07401941,-0.12339478,0.3249454,0.062956,-0.059409,-0.6703,0.737023,0
20521,-0.63831335,3.0591671,9.324496,-0.74719995,1.3124,-0.3369,0.099999994,1.6687,9.663099,-0.6747617,-0.05623451,0.4719894,0.060181,-0.060802,-0.664924,0.741995,0
20561,-0.22439417,2.2380614,11.05107,-0.2832,1.1373999,1.0507,0.1558,1.3140999,9.7169,-1.2933065,-0.043668136,0.39105847,0.045151,-0.050348,-0.659194,0.748925,0
20601,-0.71117365,1.1645205,11.610192,-0.8196,0.49379998,2.1557,0.1724,0.8398,9.769,-0.65322435,0.13163273,0.29653144,0.026608,-0.034735,-0.654688,0.754631,0
20641,-1.1117715,0.23126073,6.6860094,-1.1753,-0.1889,-2.3306,0.1162,0.6597,9.7837,-0.014940019,0.16751671,0.11152654,0.021661,-0.026431,-0.651334,0.75802,0
20681,0.26590005,-0.61345196,6.8428965,-0.0466,-1.1388999,-3.5393999,0.056399997,0.629,9.7862,-0.29129544,0.53167963,0.20711823,0.022519,-0.023038,-0.649381,0.75978,0
20721,1.4602427,-0.87521476,8.534524,1.5490999,-1.6345999,-1.1777999,-0.1467,0.58529997,9.788,0.87032586,-0.063687064,0.09679596,0.027619,-0.013588,-0.64617,0.762572,0
20762,1.6387353,0.39922833,6.618368,1.8179,-1.0633,-4.3163,0.0061,0.96529996,9.759,0.28975955,-0.77183694,-0.044610616,0.037396,-0.032091,-0.645629,0.762059,0
20801,3.524648,1.0453659,12.45525,3.0407999,0.31829998,2.7897,0.1953,1.0055,9.752999,0.14652039,-0.1104968,-0.10554006,0.032686,-0.040825,-0.646218,0.761358,0
20841,3.2401497,0.4443447,13.085998,3.3848999,-0.29979998,1.7274,0.39049998,1.104,9.7364,-0.72509706,-0.85102254,-0.58983403,0.02982,-0.051851,-0.64978397,0.75776,0
20881,1.1269028,-0.22198081,18.552134,0.5861,-1.138,9.1514,0.5122,0.7359,9.7655,-0.47685885,0.20671679,-0.16259487,0.011013,-0.044418,-0.658468,0.751216,0
20921,1.0695857,2.18718,12.978364,0.5201,1.1455,3.8704998,0.50949997,0.66859996,9.7705,0.15713198,-0.2630211,-0.14093533,0.008385,-0.042076,-0.660976,0.749179,0
20961,2.5115943,3.0720577,10.111758,1.9189999,2.5621,0.5168,0.5326,0.6544,9.7702,-0.7485717,0.57255524,-0.3591015,0.006932,-0.042501,-0.663263,0.747146,0
21001,0.97346324,1.9499911,9.243764,0.7148,1.6093,-0.0783,0.26569998,0.35189998,9.7967,-0.59400535,0.7134906,-0.49597022,0.004239,-0.02209,-0.669968,0.742049,0
21042,0.584099,0.6157791,6.835599,1.0861,0.8631,-3.5686998,-0.026999999,0.12719999,9.805699,-0.59973,0.74344045,-0.5617866,0.005705,-0.003386,-0.677719,0.73529,0
21081,-0.28045678,-0.28807035,7.6855693,0.0085,-0.2997,-1.3777,-0.3125,0.0251,9.8015995,1.2730082,0.42313763,-0.2740516,0.011843,0.010741,-0.684282,0.729041,0
21121,-2.233934,-1.0556993,0.95642614,-1.3576,-1.6861,-8.315599,-0.4075,0.6466,9.7768,1.8818663,0.05609488,-0.30073768,0.038236,-0.007686,-0.6889,0.723806,0
21161,-2.9925895,0.6269457,2.2772882,-2.7284,-0.8239,-8.3976,-0.41939998,1.2946,9.7116995,1.0821216,-1.0442654,-0.22437952,0.062538,-0.030443,-0.691843,0.718689,0
21201,-2.325785,0.5603486,12.9366,-2.1903,-0.8957,2.0767999,0.0622,1.6214,9.6714,0.08168141,-0.7080452,0.08297295,0.057171,-0.060197,-0.695713,0.71350497,0
21241,0.4138234,1.4248278,12.168885,-0.21759999,-0.38819999,2.0338,0.21759999,1.5846,9.6753,-1.041438,0.09049532,0.5977229,0.050594,-0.064309,-0.692172,0.717078,0
21281,-0.16663644,1.4957632,17.927486,-0.40629998,0.2753,8.0293,0.22,1.1171,9.7403,-0.9813812,0.07189011,0.6885673,0.03379,-0.047327,-0.68508,0.726142,0
21321,2.2649627,3.6592405,12.004154,1.485,2.5094,3.1575,0.26049998,0.8346,9.7675,-0.29204595,-0.47181484,0.6022957,0.022415,-0.038585,-0.675029,0.736439,0
21362,2.0127287,2.3152888,10.9171095,1.7806,2.0582,1.0617,0.4552,0.6484,9.7745,-1.0456791,-0.13323843,0.10908308,0.00905,-0.039403,-0.668463,0.742645,0
21401,-0.17029479,-0.2404832,10.137864,-0.47379997,-0.2683,0.9173,0.47379997,0.2683,9.7915,-0.40058798,0.023282692,-0.016458455,-0.005976,-0.027126,-0.668167,0.743492,0
21441,-1.0308092,-0.39195955,4.8498483,-1.4394,-0.63549995,-4.2233,0.4588,0.2138,9.7935,0.30161035,0.113481306,-0.024294984,-0.007538,-0.024693,-0.668504,0.74326,0
21481,0.014939819,-1.4743686,4.690557,-0.56869996,-1.6459999,-5.4294996,0.3922,0.32209998,9.7935,0.23472933,0.38632864,-0.04230678,-0.001179,-0.025861999,-0.668921,0.742881,0
21521,2.0408845,-0.79603374,8.076447,1.6531999,-1.7605,-2.4378,0.24919999,0.4563,9.7928,1.0145948,-0.038048178,-0.09030333,0.008775,-0.025025,-0.669255,0.742558,0
21561,2.7621043,0.44794556,7.3014245,2.7064998,-0.4935,-3.1576,0.32369998,0.9249,9.7575,0.7232819,-0.41601667,-0.4080929,0.023876,-0.043963,-0.67095,0.739812,0
21601,2.0376093,0.6150417,13.381203,1.29,-0.65,4.0323,0.34759998,1.1207,9.7361,0.7803018,0.12938125,0.033772122,0.030166,-0.051792,-0.675009,0.73537,0
21641,3.1886742,1.94979,13.057861,3.2224998,0.6987,2.2144,0.49409997,1.4195,9.6907,-0.34267795,-0.61398935,-0.4182856,0.036258,-0.067773,-0.675621,0.733231,0
21682,0.7531105,2.1208892,15.424577,0.412,0.6665,6.2695,0.5293,1.2261,9.715199,-0.38381535,0.34267795,-0.29005626,0.027259,-0.062572,-0.681802,0.728345,0
21721,0.87460184,3.3888872,10.298381,0.1477,2.0888999,1.1356,0.5484,1.1766,9.7203,-0.2070135,-0.7298094,-0.44771186,0.024309,-0.061722,-0.686975,0.723646,0
21761,1.6098803,3.037677,10.730601,0.9079,2.2080998,0.807,0.72969997,0.9299,9.7351,-1.6649743,0.50590116,-0.55496234,0.008176,-0.059825,-0.694607,0.71685,0
21801,-1.5298566,1.2264154,10.111786,-1.8023,1.0009999,1.2606,0.39999998,0.3719,9.7914,-0.1365022,0.58444095,-0.36105627,-8.75E-04,-0.027845,-0.703347,0.710299,0
21841,0.26628312,1.0020118,4.506031,-0.26319999,0.64879996,-4.89,0.273,0.4298,9.7934,0.42603487,0.20006709,-0.1969255,0.005624,-0.025359,-0.707742,0.705992,0
21881,-0.679168,-1.1217217,8.31783,-0.5499,-1.4439,-1.3241,0.138,0.6005,9.7872,1.2846321,0.607584,-0.08105309,0.016566,-0.026714,-0.709782,0.703719,0
21921,-2.2027326,-1.0744315,2.8584182,-2.0014,-2.4961998,-7.2837996,-0.1265,1.1723,9.735499,1.4282378,0.82632613,0.28525662,0.046772,-0.037945,-0.708454,0.70318097,0
21962,-3.2545438,1.1646738,3.4015286,-3.1899,-0.82019997,-5.9252,-0.4091,1.7421,9.6419,1.5315264,-0.33396876,0.58709383,0.078127,-0.047867,-0.700573,0.707673,0
22001,-1.6418669,2.4366558,13.820041,-1.6594,0.3585,2.9259,-0.13509999,2.1028,9.577499,-0.5388006,0.6918485,0.80426514,0.082287,-0.070058,-0.69169,0.714062,0
22041,1.0268826,2.2058449,13.796558,0.8494,0.2181,4.1854,-0.2904,1.9196999,9.6125,-0.3458719,-0.28185323,0.46696284,0.081963,-0.056389,-0.680291,0.726158,0
22081,-0.54029477,2.3363674,14.00089,-0.46109998,0.2511,4.8757,-0.1665,1.7493999,9.6479,-0.5511226,0.20230111,0.48179814,0.071602,-0.054463,-0.675341,0.731997,0
22121,0.13297397,4.9048285,8.119226,0.2324,3.2437,-1.0932,-0.2128,1.532,9.6838,-1.008364,-0.02560398,0.4344648,0.065446,-0.044448,-0.668213,0.739751,0
22161,-0.12731408,2.4281995,12.30205,0.2688,1.8632,1.6567,-0.13149999,1.0591,9.7483,-1.530968,-0.20717058,0.21299998,0.044857,-0.030949,-0.66405797,0.745692,0
22201,2.0306087,1.3397666,9.740848,1.1460999,0.6337,0.98719996,-0.12619999,0.5528,9.790199,-0.44793874,0.40454987,0.29225537,0.025427,-0.013792,-0.660254,0.750485,0
22242,-1.4653472,-1.2307155,5.117271,-1.0318,-1.4695,-4.2106,-0.1547,0.5378,9.7906,0.55463076,-0.39988983,-0.11829842,0.025813,-0.012195,-0.660251,0.750501,0
22281,0.67301005,-1.9211649,6.9256115,0.6444,-2.3525,-3.5765,-0.1541,0.6462,9.7841,-0.11211995,0.8477413,0.21214478,0.029955,-0.015854,-0.659741,0.750728,0
22321,-0.07078218,-1.7371178,4.5872617,0.0714,-2.8082,-3.6197,-0.39499998,0.76839995,9.768499,1.4117794,-0.19725712,0.07970919,0.042805,-0.010587,-0.656727,0.752837,0
22361,0.73235756,-0.17562906,7.8828516,1.525,-1.5189999,-3.6488,-0.2403,1.1266999,9.7387,-0.7946659,-0.19453439,-0.2718874,0.05139,-0.028666,-0.657476,0.751173,0
22402,2.6787574,1.7473363,10.092958,2.2897,-0.086399995,2.9666998,-0.2401,0.90029997,9.762199,-0.23987806,-0.3679154,0.12068952,0.042617,-0.021122,-0.659267,0.750402,0
22441,0.7386687,-0.7609827,18.680874,0.9892,-0.9547,7.0758996,0.0404,0.5428,9.7915,-1.3718288,-0.46650904,-0.034051374,0.01942,-0.019841,-0.660504,0.750308,0
22481,-0.5667554,0.20995232,15.099952,-0.7762,-0.2741,6.573,0.1387,0.1761,9.804,0.2802475,-0.4677657,0.32597515,0.002082,-0.011241,-0.659634,0.751499,0
22521,1.0595684,3.0252845,11.609331,0.1705,2.4938998,1.9316,0.359,0.242,9.797,-0.622908,-0.19029325,0.27885124,-0.002669,-0.021922,-0.654945,0.755353,0
22561,1.4474194,3.6320326,12.432122,1.3076,3.8223,2.2419999,0.3202,-0.13499999,9.8004,-1.8063285,1.0009289,0.053407077,-0.015871,-0.007886,-0.652078,0.757944,0
22601,1.676037,1.9051238,14.737864,2.0163999,3.2359998,5.3739,-0.064899996,-0.7549,9.7773,-0.28155652,0.8653168,-0.39763835,-0.027013,0.027657,-0.65239197,0.756894,0
22641,-0.25829604,-0.9933064,8.396992,0.2227,-0.0576,-0.0624,-0.3502,-0.61899996,9.7808,1.7304939,0.71555007,-0.2703864,-0.01193,0.034269,-0.659649,0.750696,0
22681,-0.3645603,-2.028722,0.90665543,0.35169998,-2.1735,-7.942,-0.6263,0.1337,9.7857,2.1422172,0.51953214,0.23912756,0.026278,0.019415,-0.662081,0.748719,0
22721,-2.7795532,-0.98638237,0.663213,-1.7450999,-2.1873999,-9.4971,-0.7849,0.9126,9.7324,1.4056183,0.2674368,0.6550744,0.061488,-5.52E-04,-0.657623,0.750833,0
22761,-0.33844435,2.546425,5.806054,-0.0061,0.68329996,-4.9453,-0.7097,1.4545,9.6721,1.1861432,-1.8480942,0.47635272,0.080189,-0.02064,-0.646497,0.758409,0
22801,-1.5431013,1.2730066,12.274373,-0.9765,0.1786,2.2458,0.0841,1.8512,9.6299,-0.09731956,-1.0826102,-0.19799015,0.0694,-0.06475,-0.645354,0.757963,0
22841,-1.6662686,-0.14821066,14.920809,-2.3729,-1.9512,4.8417,0.2547,1.657,9.6622,-1.0529222,0.30335566,0.48727846,0.056037,-0.064967,-0.646812,0.757807,0
22881,-0.6903537,1.3148477,13.754459,-0.7003,-0.089899994,4.7272997,0.2983,1.3549,9.708,-0.21348867,-0.5155528,0.2904577,0.043236,-0.056211,-0.6414,0.763921,0
22922,0.35636255,2.2814827,10.84128,-0.44099998,0.991,1.3542,0.48999998,1.2251999,9.7174,-0.7562337,-0.1683021,0.4953419,0.03226,-0.059218,-0.636257,0.768523,0
22961,-0.038766913,1.3826418,10.9394045,-0.30449998,0.73249996,1.1824,0.5496,0.8757,9.7519,-1.0592927,0.07773697,0.09135053,0.016904,-0.05001,-0.631236,0.77379197,0
23001,-0.13065638,1.1807245,7.5210204,-0.78959996,0.61399996,-1.6493,0.52489996,0.5137,9.779099,-0.54688144,0.06405358,0.074630275,0.003437,-0.037316,-0.630472,0.775306,0
23041,0.08666052,0.11672212,5.6689816,-0.2953,0.119399995,-4.141,0.4915,0.3022,9.789599,-0.65174085,0.27523842,-0.010000736,-0.003851,-0.029179,-0.630493,0.775636,0
23081,1.2423513,-0.9543767,8.762807,0.3039,-0.7144,-1.9762,0.3041,-0.0014,9.8019,-0.77845174,0.80737185,0.34009486,-0.009816,-0.012003,-0.629306,0.777002,0
23121,1.5696099,-1.9922919,11.633349,1.5501,-1.9354,2.9329,0.0482,-0.114,9.8057995,1.7277887,0.07246607,0.088558,-0.006078,0.00172,-0.62608397,0.779729,0
23161,2.2830148,0.260221,5.253951,2.3286,-0.7784,-6.1021,0.0936,0.5724,9.7894,0.3879867,-0.27518606,0.07122689,0.01982,-0.02197,-0.624416,0.780531,0
23201,2.1621077,0.60172033,13.223846,1.9569999,0.08,2.8323998,0.0827,0.58669996,9.7887,-0.4277802,0.115942225,0.0956615,0.020781,-0.021949,-0.622802,0.781795,0
23242,2.1822383,0.81380826,15.707955,2.4831,0.401,5.4926,0.12539999,0.44219998,9.7958,-0.40837213,-0.098907806,-0.2581342,0.013659,-0.019055,-0.622806,0.782024,0
23281,0.039762903,1.1213387,13.588426,-0.026899999,0.634,4.4976,0.125,0.3269,9.8004,0.14960963,-0.13665928,-0.24085544,0.008992,-0.015421,-0.626772,0.778997,0
23321,-0.40765595,1.1934139,10.384323,-0.7147,0.8364,0.85319996,0.2244,0.3796,9.7967,-0.24904104,-0.303792,-0.26036823,0.007793,-0.021096,-0.630995,0.77546,0
23361,0.06186617,0.65514934,11.067685,0.1761,0.6458,1.5071,0.2749,0.2367,9.7999,-0.39128536,0.493806,-0.4537158,3.95E-04,-0.018498,-0.636107,0.771379,0
23401,-0.687337,0.49601156,5.857788,-0.8102,0.343,-3.3228998,0.0747,0.15699999,9.8050995,0.09536479,0.50010663,-0.2819056,0.003685,-0.008067,-0.642551,0.766191,0
23441,-0.55330956,-0.34851918,5.392183,-0.5683,-0.3313,-4.6654997,-0.118,0.18419999,9.8042,0.20598376,0.40765655,0.002408554,0.011062,-0.001474,-0.645985,0.763268,0
23481,-1.0225539,-0.59675956,5.9149904,-0.7883,-1.0433,-3.7466,-0.2609,0.3372,9.797299,1.0146297,0.1303761,0.44708353,0.021727,-8.94E-04,-0.644189,0.764556,0
23522,-3.0395062,0.36685872,4.1863,-2.6187,-0.6537,-5.3371,-0.2839,0.80079997,9.7697,1.4317285,-0.460924,0.8000589,0.040748,-0.014832,-0.635836,0.770604,0
23561,-0.5381974,1.1175942,12.931965,-0.4416,-0.23269999,1.51,0.1572,1.3016,9.718599,0.48642325,-1.26299,0.66104347,0.046855,-0.047888,-0.624314,0.778294,0
23601,-0.4298454,0.5905155,12.534641,-1.2915,-0.9468,3.2649,0.36969998,1.3979,9.6994,-0.20706587,0.53209853,0.98342323,0.044824,-0.058792,-0.612091,0.787323,0
23641,0.07491936,1.4769543,15.48992,0.1086,0.1891,5.251,0.3425,1.3014,9.713799,-0.22427481,-0.11683234,0.59749603,0.042699,-0.053918,-0.598715,0.798003,0
23681,0.29960084,2.678882,11.930967,-0.204,1.1511999,3.0565999,0.3511,1.2415999,9.7213,-0.09262462,0.35138714,0.81086254,0.040694,-0.051872,-0.587847,0.80628,0
23721,0.58112067,2.8039548,10.494485,0.13859999,1.8033999,0.56909996,0.2732,1.1287,9.737599,-0.83864814,0.124337256,0.57320106,0.03905,-0.04465,-0.575715,0.815495,0
23761,1.5377861,2.4010491,11.465017,1.2734,1.6747999,1.9935,0.20729999,0.76699996,9.7744,-0.8338136,0.65083325,0.45261624,0.026219,-0.030926,-0.567081,0.822663,0
23802,0.47347733,0.7304997,7.572314,0.6864,0.4085,-1.752,-0.0685,0.50339997,9.7934,-0.07340855,0.8476192,0.070092425,0.023211,-0.01152,-0.56124,0.827247,0
23841,-0.9019532,-0.6205196,5.704866,-0.27359998,-0.90849996,-3.5303,-0.23339999,0.48549998,9.7918,0.55120987,0.786201,0.07333873,0.031652,-2.28E-04,-0.560158,0.82778,0
23881,0.5554452,-1.7780491,5.6892266,0.92579997,-2.3453999,-5.2622,-0.6218,0.80579996,9.7536,0.87261224,-0.14388494,-0.001692969,0.051857,0.003379,-0.557436,0.828591,0
23921,4.153959,0.31531638,6.774959,3.573,-1.4589,-1.7544999,-0.48389998,1.3019999,9.7077,2.127539,-0.8658055,-0.074298665,0.069017,-0.016665,-0.557264,0.827293,0
23962,2.6570086,1.6350865,7.1082892,2.9759998,-0.0731,-3.1746,-0.2694,1.9461999,9.6078,0.34320155,0.123604216,-0.35219,0.090184,-0.044779,-0.560476,0.822026,0
24001,1.6091143,1.5394622,10.193687,2.2129,-0.3994,-0.2014,-0.2025,2.0567,9.5863,-0.33512068,-1.3092762,-0.6087883,0.092525,-0.05166,-0.567512,0.816517,0
24041,-0.7321948,0.235034,16.417683,-0.4791,-1.5543,6.4031,0.1064,1.7406,9.6503,-1.1903145,-0.015969763,-0.34180528,0.069312,-0.056262,-0.579326,0.810192,0
24081,-0.39443037,3.0414023,11.491259,-0.9938,1.1336,2.8135998,0.1602,1.4355999,9.6996,-0.1364673,-0.7645764,-0.17385225,0.054636,-0.049696,-0.585028,0.807642,0
24121,1.8235484,3.4395485,11.722988,1.5013,2.5783,0.95849997,0.38149998,1.2364,9.7209,-1.7443169,0.013491395,-0.5708448,0.039421,-0.053083,-0.590035,0.80466497,0
24162,0.3887705,1.7498455,13.126948,0.8876,0.4341,2.5033998,0.2695,0.6053,9.7842,-0.78255326,-0.23239058,-0.3533768,0.016409,-0.029557,-0.6009,0.798608,0
24201,0.30618966,1.9286444,7.501685,0.5767,1.6844,-1.8881999,0.2861,0.44349998,9.792399,0.16728981,-0.06263987,-0.93977255,0.008969,-0.025386,-0.61143,0.79083997,0
24241,-1.0419182,-0.35587415,7.7982693,-1.5180999,-0.67219996,-2.1891,0.253,0.5251,9.7893,0.39348447,0.3879867,-0.35002577,0.012843,-0.026821,-0.624764,0.780246,0
24281,0.90383035,0.047108315,6.1733246,1.2626,-0.8425,-3.3265,0.12979999,0.8425,9.7695,2.045718,-0.35208526,-0.21109757,0.029316999,-0.032148,-0.627023,0.777784,0
24321,-4.924681,0.74686646,2.777877,-4.5975,-1.4972,-6.0186,0.2826,1.6834999,9.656899,1.9916824,-0.5625894,-0.028658306,0.057626,-0.065673,-0.629656,0.771944,0
24361,3.4313793,2.3832648,9.859169,1.8101,-0.069699995,-2.1959,0.6807,2.2468,9.5213995,-0.6163456,-0.95448565,0.10620329,0.06737,-0.100003,-0.627121,0.769532,0
24401,-1.7809317,0.23656629,15.79224,-2.6174,-1.3543999,6.9944997,0.75409997,1.9133999,9.5885,-0.7734426,0.96151936,0.31869712,0.05152,-0.09201,-0.629069,0.770162,0
24442,1.0904727,1.1039568,13.986955,0.6626,-0.63449997,4.5394,0.61219996,1.7426,9.6311,0.4805415,-0.29211575,0.097092666,0.049824,-0.080413,-0.624616,0.775181,0
24481,-1.6094495,1.0003836,9.616302,-2.3757,-1.2203,0.6184,0.6105,1.9067999,9.599999,0.001675516,0.9191951,0.758363,0.05684,-0.085447,-0.62077,0.777246,0
24521,0.31405222,2.6264968,9.764991,-0.0015,0.75729996,0.109299995,0.3055,1.7824999,9.6384,-0.5829923,0.5635668,0.7125307,0.062854,-0.068014,-0.606564,0.789621,0
24561,-0.046265554,1.5828834,9.103827,-0.4159,0.3789,-0.514,0.1511,1.5431,9.6832,-0.75717616,0.49525464,0.9165771,0.058780998,-0.05324,-0.593971,0.800567,0
24601,-0.22672133,1.5735747,8.05738,-0.2638,0.23719999,-1.1466,-0.0107,1.2435,9.7274,-0.67626274,0.56990236,0.8185594,0.052063,-0.036415,-0.579057,0.812807,0
24641,-0.12918155,7.95E-04,8.097009,0.0755,-0.9855,-1.4379,-0.1441,1.0051,9.7539,-0.4709422,0.98340577,0.5911954,0.046421,-0.023076,-0.567013,0.822075,0
24682,0.1390648,0.7589619,7.822135,0.5449,-0.1689,-1.979,-0.5449,0.8358,9.7557,0.11121238,0.6814289,0.47165778,0.050935,-6.79E-04,-0.556741,0.829122,0
24721,3.6253865,1.6603214,7.264937,3.5623,0.92859995,-1.5615,-0.6791,1.013,9.7305,1.3724571,-0.6984284,-0.05454154,0.062305,4.40E-04,-0.54968,0.833048,0
24761,1.4167354,-0.00158975,10.651736,2.0434,-1.2839,0.48499998,-0.4155,1.4211999,9.6942,0.3213151,-0.16891296,-0.28272587,0.072231,-0.022706,-0.553943,0.829104,0
24801,2.778586,0.984965,10.120798,2.9136,-0.87079996,0.618,-0.3933,1.5279,9.6788,0.16917476,-0.6396981,-0.17270033,0.076058,-0.026991,-0.557012,0.826573,0
24841,-0.4117931,-0.053237468,15.503289,0.5724,-1.3262,5.0861998,-0.17029999,1.4830999,9.6923,-0.7134208,-0.141808,-0.40818015,0.067532,-0.035597,-0.562571,0.823216,0
24882,-0.22792801,1.7383628,13.229286,-0.3542,0.16669999,3.8746,-0.12629999,1.314,9.717299,0.26494098,-0.44655994,0.034627333,0.058912,-0.032868,-0.567256,0.820773,0
24922,1.7963504,4.19333,11.766305,1.8151,2.8209999,2.2433999,0.0481,1.3663,9.7108,-0.33353242,-0.06705555,-0.41378266,0.055935,-0.041884,-0.569435,0.81906,0
24961,0.9521644,3.274224,11.674674,1.1323,1.7481999,1.3834,-0.0143,1.1643,9.7372,-0.87400854,0.39606756,-0.5386959,0.048948,-0.033782,-0.577099,0.814505,0
25001,0.12451764,1.6197731,9.629192,0.3243,0.8134,0.8986,-0.1968,0.9223,9.7611,0.2838778,0.4863709,-0.6650228,0.044001,-0.01953,-0.586827,0.808279,0
25041,-1.0956441,-0.6279512,3.9895444,-0.84139997,-1.4884,-5.4142,-0.40399998,1.0764999,9.738999,0.538085,0.39927897,-0.30675906,0.05642,-0.016301,-0.596407,0.80053,0
25081,1.3952641,0.8980842,5.1832743,1.7123,-0.71709996,-4.7609,-0.55509996,1.3054999,9.7034,1.2210847,0.072326444,-0.2497217,0.070394,-0.017441,-0.599572,0.797027,0
25121,-3.4995663,0.3975428,1.9721327,-1.7148999,-1.7107999,-7.0421996,-0.5797,1.8578999,9.6115,1.7266194,-0.27619836,-0.43966588,0.09366,-0.034272,-0.604753,0.790143,0
25162,-1.8841889,0.8914475,5.5234423,-2.2229,-1.3857,-6.2384996,-0.3856,2.386,9.5041,0.0901288,-1.580448,-0.2046573,0.108866,-0.059769,-0.610184,0.782464,0
25201,-0.8113662,0.7034548,12.068414,-1.1121,-1.7807,2.7619,0.0628,2.3690999,9.5159,-0.4272566,-0.4503473,0.0697259,0.093485,-0.077983,-0.615361,0.778787,0
25241,-0.8409107,2.1391044,14.180914,-0.71989995,-0.17099999,4.2429,0.1805,2.1128,9.5746,-1.0497806,-0.047368236,0.13208652,0.079385,-0.074342,-0.615238,0.780802,0
25281,-1.1779568,3.5924516,13.705665,-1.4014,1.6724,4.6067,0.254,1.7695999,9.6423,-0.46994734,-0.28047442,0.3625398,0.06334,-0.066083,-0.613692,0.78422,0
25321,-0.30816248,2.979517,13.474721,-0.8154,1.6468999,3.2568,0.36429998,1.5402,9.6779995,-0.9203645,-0.004660029,0.641234,0.051086,-0.062811,-0.607694,0.790033,0
25361,-0.05377377,2.7342262,12.297233,-0.8193,1.3508999,3.4097998,0.3976,1.2282,9.7213,-0.19015363,-0.037507124,0.75900877,0.038062,-0.053876,-0.597981,0.798791,0
25401,0.55284035,1.9024614,8.599494,0.1215,1.0777,-0.7158,0.43739998,1.1581,9.7281,-0.050632,0.18242182,0.4947834,0.034698,-0.052878,-0.587116,0.807028,0
25442,0.5827104,0.30138212,7.395421,0.28329998,-0.6925,-2.3602,0.37359998,1.124,9.734799,-0.047158796,0.38180822,0.3677234,0.035664,-0.048878,-0.579587,0.81266,0
25481,1.1778227,-1.3498126,7.4000177,1.0875,-2.0209,-2.4429,0.21669999,1.1285,9.738999,0.40997785,0.59154445,0.13917255,0.040799,-0.042193,-0.573912,0.81681,0
25521,0.7624766,-0.7652922,6.701974,0.76,-2.6346,-2.717,0.0048,1.3794,9.7091,1.4977717,0.29883528,0.06990044,0.057688,-0.040537998,-0.570663,0.818151,0
25561,2.700468,1.1463916,5.1832933,2.8765,-1.0828,-5.481,-0.0325,1.9555999,9.6096,0.63338,0.01754056,-0.27373743,0.083126,-0.055999998,-0.569574,0.815805,0
25601,0.5180478,2.0569448,9.827872,0.944,-0.243,0.473,-0.1497,2.0965,9.5787,0.36744416,0.11006046,-0.23108159,0.092296,-0.055684,-0.572907,0.812501,0
25641,2.7899537,2.962566,11.3099785,2.6885998,1.1314,0.1963,0.0277,2.2224,9.5514,-1.1342196,-1.0310184,-0.5263215,0.091894,-0.067572,-0.578496,0.80767,0
25681,0.6915125,0.59666383,20.920496,0.43559998,-1.309,11.2997,0.15269999,1.6424999,9.6669,-1.1022452,0.524646,-0.09505063,0.063218,-0.055928,-0.588277,0.804241,0
25721,0.3663799,3.718559,11.997709,0.4394,1.7842,3.9968,0.1293,1.4813,9.6932,0.76188856,-0.6997723,-0.22401302,0.057095,-0.050218,-0.590907,0.803147,0
25762,1.1376481,3.5580328,7.020958,0.6774,2.4724998,-3.2694,0.2836,1.5874,9.6730995,-1.4555522,0.31204742,-0.36079445,0.056509,-0.060104,-0.594676,0.79972,0
25801,-0.03331771,1.32543,11.121804,0.0853,0.3259,1.9796,0.1696,1.0469999,9.7491,-0.5181708,-0.04277802,-0.74127626,0.037371,-0.039198,-0.60319,0.795756,0
25841,-1.3266943,0.14091313,5.640787,-1.3026999,-0.4569,-4.1377,0.0964,0.8786,9.7667,-0.62233204,0.70537484,-0.4926541,0.03232,-0.031476,-0.614686,0.787479,0
25881,-0.5482722,-0.31701145,8.977595,-0.536,-1.1084,-0.79679996,-0.121,0.7161,9.779699,0.6105162,0.113882735,-0.018011797,0.032473,-0.017853,-0.620611,0.783241,0
25921,0.51615155,1.0084473,4.7591844,0.5509,-0.1832,-3.1482,-0.1488,0.8598,9.7677,1.3575345,0.36348227,0.24830799,0.044823,-0.023976,-0.619247,0.783548,0
25961,-3.5363986,0.7959188,-0.24084711,-3.1504998,-0.73139995,-9.698999,-0.24249999,1.6729,9.6598,0.9451307,-0.82869977,0.34077555,0.075175,-0.042813,-0.612137,0.786005,0
26002,-2.2559605,0.4199334,13.532401,-2.5093,-1.4326,2.3955,0.2145,1.8542,9.627299,-0.5412615,-0.4677308,0.6942571,0.068543,-0.066658,-0.607356,0.78865397,0
26041,0.41240603,1.4857745,12.588884,-1.5454999,-0.90709996,3.9404,0.3491,1.7014999,9.6515,-0.51014227,-0.06995279,0.8992111,0.058813,-0.066681,-0.599324,0.79555297,0
26081,0.33964145,1.9004312,15.554611,0.0323,0.3141,5.6345997,0.43829998,1.4215,9.6931,-0.55279815,0.013840461,0.72022754,0.045853,-0.060696,-0.583143,0.8088,0
26121,0.5382836,3.6126971,11.451026,-0.0055,2.1588,2.3988,0.4174,1.2146,9.722099,-0.61294216,0.29316294,0.7747691,0.038677,-0.053017,-0.571199,0.818183,0
26161,0.97058064,2.8678226,12.887633,0.5286,2.2881,2.5895998,0.3834,0.9088,9.7569,-1.1254407,-0.13350023,0.48857,0.027437,-0.042223,-0.560057,0.826922,0
26201,0.71895957,0.8105426,13.441307,0.1282,0.38509998,4.2292,0.4209,0.5072,9.7844,-0.37322122,0.16811012,0.5394638,0.009687,-0.032202,-0.552675,0.832717,0
26242,0.19591273,0.03479254,6.79643,0.114599995,-0.1864,-2.0047998,0.3364,0.43159997,9.7913,0.24171065,0.4259476,0.3524518,0.009117,-0.026383,-0.544477,0.83831,0
26281,0.44935337,-0.5305647,4.7138577,-0.21939999,-1.0357,-5.3286,0.1899,0.5258,9.7906,0.25935593,0.2747672,0.37374482,0.017384,-0.022607,-0.538188,0.842342,0
26321,1.0089549,-1.8150157,8.283766,0.99189997,-2.1982,-1.9296,0.0867,0.64879996,9.784699,1.0175793,0.268292,0.08265879,0.025637,-0.021396,-0.533066,0.845414,0
26361,2.4445662,-0.4532607,2.6710672,2.1673,-1.7928,-5.5386996,0,1.175,9.7359,1.9461293,-0.20521581,-0.2014808,0.050816,-0.031936,-0.531174,0.845134,0
26401,1.2276317,1.08533,7.4031205,1.2250999,-0.8249,-3.6608,0.1085,1.7271,9.652699,-0.07655014,0.102450825,-0.14594443,0.071598,-0.052159,-0.534834,0.8403,0
26441,3.2561622,2.4103482,10.387005,2.6207,0.43829998,0.6099,0.1153,1.6994,9.657499,-0.2496519,-1.0233214,-0.31634092,0.070073,-0.051866,-0.5371,0.839001,0
26481,2.1821232,0.3763398,19.219673,2.33,-0.7457,8.3675995,0.45499998,1.4616,9.686399,-1.1562631,-0.26693067,-0.62011546,0.049766,-0.060441,-0.546444,0.833827,0
26522,-0.40311652,2.7342741,13.580468,-0.7671,0.8285,5.363,0.4827,1.2112,9.7195,0.3729245,-0.7112391,-0.35541886,0.037612,-0.054997,-0.556502,0.828169,0
26561,5.8102393,6.3283443,11.099384,4.3118997,4.8196,1.0777,0.7973,1.28,9.689899,-0.93235487,-0.56016344,-0.7047116,0.031033,-0.0706,-0.562628,0.823105,0
26601,2.9643376,4.2799897,13.854584,2.4661,3.7624998,3.9880998,0.84849995,0.8662,9.731299,-1.1106403,0.36697292,-1.2024795,0.010925,-0.060972,-0.578624,0.813238,0
26641,-1.160163,0.8345421,8.7698555,-1.249,0.67719996,0.30089998,0.7195,0.61719996,9.7607,0.3577576,-0.099326685,-1.1321602,0.003163,-0.048288,-0.599392,0.798991,0
26681,-1.7960726,-1.3245969,7.2819643,-2.9009,-2.0642,-2.3725998,0.7337,0.7894,9.7472,0.71555007,0.4299444,-0.38201767,0.008718,-0.054338,-0.61446,0.787025,0
26721,-2.0804367,-1.6756921,2.9178233,-2.4394,-2.8086,-6.2690997,0.5467,1.1709,9.7211,1.5780394,0.31375784,0.007295476,0.029679,-0.058987,-0.617904,0.783475,0
26761,-3.73302,-1.1478952,2.1459231,-3.7805,-3.2649999,-7.1296,0.456,1.7939999,9.6303,1.6757604,0.31477013,0.42552873,0.0579,-0.07507,-0.614181,0.783449,0
26802,-1.2869791,0.6584246,3.5068927,-2.4155,-1.7443,-7.6849,0.464,2.3523,9.509,0.45088837,-0.951379,0.5893104,0.081407,-0.092456,-0.6038,0.787559,0
26841,-1.301852,0.7441945,12.389803,-1.8075,-1.4547,3.093,0.8171,2.3372998,9.4889,-0.93928385,0.5570742,0.7053574,0.070847,-0.105739,-0.595649,0.793096,0
26881,0.16241308,1.9801197,15.271377,-0.89019996,-0.1413,4.6403,0.65489995,1.8476,9.6087,-1.6344659,0.3743382,1.0910053,0.057019,-0.082706,-0.583399,0.805948,0
26921,1.3545244,4.259419,16.778269,0.7416,2.7036,7.4872,0.6116,1.2778,9.7037,-0.5897991,0.09442231,1.0670245,0.03594,-0.062876,-0.56733,0.82029897,0
26961,1.445437,4.4764967,13.322133,0.8075,3.6604998,3.9541,0.64379996,1.076,9.7261,-0.20308651,-0.23431045,0.88931507,0.027696,-0.057772,-0.550698,0.832241,0
27001,0.97369313,2.2347,12.643349,0.036399998,1.4904,3.1861,0.76769996,0.9612,9.7291,-0.12184144,-0.073565625,0.9175021,0.020334,-0.059465,-0.536354,0.84165,0
27041,0.96691275,0.2965171,8.049861,0.6246,-0.2923,-0.58629996,0.8071,0.95919997,9.7261,0.559378,0.3610737,0.45601964,0.020195,-0.060781,-0.52206,0.8505,0
27082,-0.5492586,-0.7688069,3.994515,-1.1995,-1.7872,-5.7767997,0.6405,1.14,9.719,0.21848032,0.76656604,0.47249553,0.033093,-0.05805,-0.513655,0.85539,0
27121,2.6723697,-0.94225246,5.55494,1.4193,-2.3353,-4.2655997,0.385,1.2566,9.7181,0.9249198,0.51530844,0.36852628,0.045476,-0.049423,-0.504083,0.861039,0
27161,2.6839097,-0.2173935,4.350188,2.4147,-1.762,-4.4695997,0.2428,1.7423999,9.6475,1.9275242,-0.27441812,-0.54649746,0.070835,-0.055626,-0.501097,0.860691,0
27201,3.2580776,2.3078284,8.179244,2.3279,-0.5475,-2.5881,0.408,2.3518999,9.5116,0.27279496,-0.6282313,-0.362086,0.092992,-0.079946,-0.508815,0.852095,0
27241,4.5934005,2.588017,13.293211,3.893,0.1019,3.6308,0.6277,2.3889,9.490399,-0.7031931,-0.90685564,-0.62894684,0.087946,-0.091574,-0.517303,0.846331,0
27281,1.5688342,1.0198916,20.773224,1.4379,-0.92999995,11.0407,0.82739997,2.0087,9.5629,-0.92893404,0.02104867,-0.65626127,0.064323,-0.091026,-0.531988,0.839383,0
27321,-0.59316826,2.8530266,12.633331,-1.4476999,0.6904,4.1878,0.8789,1.8495,9.5904,0.39891246,-1.0472848,-0.17210692,0.054899,-0.089486,-0.542403,0.833532,0
27362,4.353865,5.3595066,6.9677205,2.4069998,3.1443,-2.0809,1.2508,1.9255999,9.533999,-0.9046914,-0.49317768,-0.2943498,0.047405,-0.107948,-0.54496497,0.830127,0
27401,1.8703408,2.8334708,11.342062,0.8285,1.4125,1.553,1.3091999,1.4706,9.6069,-1.3561558,0.19779816,-0.868598,0.024836,-0.097802,-0.557385,0.824098,0
27441,0.83070177,2.2775657,8.215282,0.7381,1.721,-1.2148,1.1446999,1.0934,9.6779995,-0.7196865,0.84892815,-1.1739085,0.011946,-0.080093,-0.574573,0.814437,0
27481,-1.5063072,-0.25894725,8.344253,-2.3099,-1.0503,-0.5177,0.7801,0.9816,9.7261,1.2073315,0.533425,-0.59232986,0.016778,-0.061827,-0.591413,0.803819,0
27521,-2.6737583,-1.0451648,1.4351037,-2.7653,-2.4429,-7.9083996,0.5883,1.5603,9.663799,1.6671036,0.3533419,-0.19013616,0.045848,-0.07197,-0.597427,0.797369,0
27561,-4.3375177,0.33299515,0.65522593,-4.2764997,-2.3216,-8.595099,0.4028,2.1647,9.5562,1.3008113,0.549674,0.43922955,0.076644,-0.083022,-0.594423,0.796174,0
27602,-1.0218357,1.7789015,7.5419745,-2.5249999,-1.0272,-4.7706,0.4558,2.5864,9.4484,0.12201597,-1.6662832,0.5600936,0.093581,-0.097503,-0.584917,0.799754,0
27641,-1.4024851,1.554105,13.930797,-1.9830999,-0.8731,5.1903996,0.9043,2.5304,9.4312,-0.88554513,0.85737556,0.88655746,0.078659,-0.113799,-0.577655,0.80447197,0
27681,0.47119805,1.401738,16.206524,-0.2022,-0.6153,6.2609997,0.6925,2.0863,9.557,-1.1810468,0.5226214,0.929894,0.068076,-0.089943,-0.563009,0.818716,0
27721,0.78177387,2.2807453,12.252385,-0.0065,0.1008,3.5974998,0.60469997,1.7427,9.631499,-0.27639034,0.2070484,0.9345889,0.057362,-0.075069,-0.549153,0.830364,0
27762,0.6344826,3.27816,10.422028,0.3482,1.7979,-0.23259999,0.5833,1.6049,9.656799,-1.2758532,0.25062928,0.9861459,0.053046,-0.069464,-0.537562,0.838681,0
27801,2.3362525,3.204323,12.560106,1.3503,2.1331,3.3100998,0.53249997,0.9853,9.7424,-0.54789376,0.18329448,0.8867145,0.02895,-0.049334,-0.517241,0.853925,0
27841,0.42102516,1.3953695,8.202631,0.2075,0.7812,-0.99359995,0.4788,0.8172,9.7607,0.005113815,0.4242721,0.4752008,0.023654,-0.04217,-0.504588,0.862004,0
27881,1.1310784,0.58973974,7.018248,0.3443,-0.1406,-2.902,0.3126,0.8271,9.7667,0.32801718,0.61004496,0.3401996,0.028697,-0.034831,-0.496567,0.866823,0
27921,3.9654014,0.04254975,7.452815,3.9901998,-0.65279996,-2.4150999,0.069699995,1.0451,9.7505,1.43864,0.60535,-0.41493458,0.044666,-0.029418,-0.492522,0.868654,0
27961,1.487374,-2.788948,2.5986953,2.0105,-4.1035,-6.2963,-0.1669,1.6812999,9.66,1.4497577,0.011938052,-0.6179338,0.078745,-0.035724,-0.499224,0.862147,0
28001,2.8307316,0.5754224,8.483403,2.524,-2.0530999,-1.457,-0.21949999,2.0530999,9.5868,0.18387043,0.04394739,-0.28646088,0.096324,-0.043932,-0.506476,0.855729,0
28042,3.4005423,2.4724345,10.668352,3.1492,0.26999998,-0.62299997,-0.1091,2.0639,9.5863,-1.4604392,-0.90631455,-0.6251071,0.093489,-0.049906,-0.513959,0.851243,0
28081,0.23251529,1.7032351,18.472004,0.4057,-0.0088,8.5486,0.064899996,1.4307,9.7014,-1.1909952,-0.3714235,-0.57512087,0.060308,-0.041525,-0.527764,0.846228,0
28121,0.052145712,3.5522962,13.492849,-0.0808,2.2617,4.1717,0.2671,1.1607,9.734,-0.2681175,-0.9043773,-0.50050807,0.042584,-0.043456,-0.538085,0.840691,0
28161,-0.9462939,2.8147287,11.164928,-1.5661,1.9994999,1.8393999,0.5266,0.9914,9.7421,-0.84905034,-0.1881814,0.07056366,0.027699,-0.050201,-0.545695,0.836019,0
28201,2.4794447,2.4784107,9.495011,2.5809,2.2277,-0.0407,0.5669,0.6455,9.7689,-0.8756666,0.35414475,-0.56930894,0.011746,-0.042246,-0.546646,0.836214,0
28241,-2.0147686,-0.5944803,8.094901,-2.0737,-0.6087,-1.8694999,0.37719998,0.3439,9.7933,-0.33276448,0.59810686,-0.23649211,0.003859,-0.025748,-0.556587,0.830381,0
28282,-0.07101203,-0.5797416,6.0751815,-0.066,-0.8817,-2.9938998,0.1347,0.3423,9.7997,1.2305619,0.4184776,0.03822271,0.010656,-0.015442,-0.557866,0.829718,0
28321,-1.4142646,-0.8704264,2.546722,-1.3283,-1.8409,-6.9860997,0.0534,0.93869996,9.7614,2.0163789,-0.22238985,0.06848672,0.038265,-0.028967,-0.556619,0.82938,0
28361,-4.208001,1.054349,3.8705049,-4.2746,-0.98899996,-5.7426,0.0969,1.6559,9.665299,1.2435994,-0.05864306,0.4550946,0.067741,-0.051144,-0.552862,0.828938,0
28401,1.6453146,2.324789,15.738658,1.4053999,0.243,4.5875998,0.4087,2.0419,9.5829,0.50474924,-1.0788753,0.20097466,0.07604,-0.074973,-0.545525,0.831263,0
28441,-0.121615864,1.0645291,13.083546,-1.0131999,-1.0961,3.4678998,0.5523,2.1355999,9.5553,-0.7914719,1.0463424,0.6616369,0.076505,-0.083434,-0.540837,0.833474,0
28481,-0.5004169,1.9709643,15.941878,-0.5451,-0.0614,6.699,0.28039998,1.8364999,9.629,0.008988446,0.24982643,0.6917263,0.071988,-0.062222,-0.529827,0.842751,0
28521,1.53996,4.2865496,9.018709,0.6922,1.9059,0.12539999,0.2197,1.8793999,9.6223,-0.10882128,0.310529,0.76379097,0.076469,-0.05957,-0.516335,0.850882,0
28562,0.2498972,3.2603664,10.443613,0.3229,1.9041,0.2138,0.2065,1.7242999,9.6516,-1.0521892,-0.21884683,0.18325958,0.070594,-0.054028,-0.506967,0.857369,0
28601,0.5845012,1.4717542,10.545731,0.16059999,0.2263,1.3675,0.24139999,1.323,9.7139,-0.78641045,0.375717,0.22600268,0.052097,-0.044837,-0.504472,0.860687,0
28641,-0.5548706,-0.006224925,6.7437863,-0.3937,-0.96199995,-2.5115,0.0799,1.0601,9.748799,-0.36288884,0.4123515,0.079395026,0.044743,-0.030742,-0.50194,0.863196,0
28681,0.2829659,-0.20847751,5.2487607,-0.0735,-1.1213,-4.6014,-0.083299994,0.9546,9.7597,-0.018971728,0.5150117,0.33964106,0.044342,-0.02065,-0.498808,0.86533,0
28721,1.297437,-1.0037163,6.4765744,1.6242,-1.8650999,-3.5131998,-0.24149999,1.0217999,9.750199,0.9071349,0.045186576,0.03508112,0.051444,-0.015085,-0.493874,0.867879,0
28761,3.2233808,0.23835714,4.211008,2.7091,-1.3592,-4.9207,-0.228,1.4474,9.6965,1.1314272,-0.5343849,-0.26928684,0.070096,-0.026452,-0.492968,0.866815,0
28801,-0.04774996,0.93196696,10.717529,-0.3109,-1.0242,0.7521,-0.0224,1.7303,9.652699,0.003647738,-0.079779,-0.1715135,0.077144,-0.043532,-0.500741,0.861052,0
28842,3.113008,2.1945443,10.657377,2.9612,0.7944,-0.5402,0.039499998,1.6866,9.660399,-1.480685,-0.84936446,-0.3307399,0.073454,-0.045375,-0.503567,0.859631,0
28881,0.08555919,-0.29079017,20.548965,-0.0188,-1.507,10.531,0.3032,1.0167,9.749,-1.5051545,-0.1740966,-0.047717303,0.036634,-0.03991,-0.511903,0.857333,0
28921,1.0470705,3.3867037,12.973748,0.4405,2.1613,4.5116997,0.4028,0.65309995,9.7765,-0.064018674,-0.51358056,0.1847431,0.018128,-0.034707,-0.511004,0.858685,0
28961,0.9958826,3.3741484,10.164938,0.3782,2.9496999,0.5671,0.622,0.5904,9.769,-0.34657001,-0.46982518,-0.20319124,0.009694,-0.042681,-0.510189,0.858947,0
29001,0.617388,2.2542462,6.9974475,0.047599997,1.8680999,-2.4154,0.70739996,0.456,9.7704,-0.50204396,0.42346925,-0.3016627,0.001326,-0.042934,-0.515047,0.856084,0
29041,2.336329,1.503664,6.5230217,1.6588999,1.6403999,-3.7930999,0.5769,0.3012,9.785,-0.62009805,0.19514526,-0.50609314,-0.003975,-0.029946,-0.520654,0.853233,0
29081,0.31060457,-0.6853738,8.469133,-0.0234,-0.7726,-0.42949998,0.4549,0.1548,9.7948,1.0829245,0.32311282,-0.3332008,-0.005581,-0.023865,-0.52915597,0.84817,0
29122,-2.0316238,-1.3696557,3.793718,-1.8276,-1.9943999,-5.7725,0.39589998,0.6999,9.7736,1.9328998,-0.55600953,-0.3516315,0.019372,-0.036173,-0.534414,0.844226,0
29161,-2.1178343,0.47691542,4.0163403,-3.6313999,-1.1265,-6.3694997,0.562,1.3715999,9.6939,0.6780081,-0.81086254,0.17654005,0.043666,-0.061955,-0.536402,0.840551,0
29201,0.40166086,0.72266585,16.426905,-0.0981,-0.34939998,5.8273997,0.94149995,1.4869,9.6474,-0.41659263,-0.25480062,-0.1336573,0.038308,-0.081552,-0.53507,0.839988,0
29241,1.3026181,0.29454428,14.658002,-0.0924,-1.1657,5.0878997,0.91609997,1.3421999,9.671,-0.4222824,0.5878618,0.2947861,0.032731,-0.076434,-0.535475,0.840448,0
29281,-0.19190006,0.9543671,15.076958,-0.5797,-0.4323,5.7321997,0.7464,1.207,9.7034,0.25994933,0.108943455,0.2287254,0.031867,-0.065176,-0.531649,0.843851,0
29321,-0.50130755,2.5501792,10.466932,-1.2949,1.0327,1.4311999,0.71639997,1.3306,9.6895,0.30124384,0.20209168,0.63997734,0.038523,-0.066996,-0.525433,0.847317,0
29362,1.7656089,3.4786985,8.464585,0.8486,2.1567,-1.0758,0.6811,1.3736,9.686,-0.34850734,0.16863371,0.60252255,0.042257,-0.066054,-0.513691,0.854383,0
29401,0.8289396,1.6740067,8.439963,0.4736,0.8832,-1.3991,0.6148,1.1859,9.715199,-0.41702896,0.2678033,0.21486749,0.036341,-0.057792,-0.505339,0.860215,0
29441,0.38594532,0.56641066,5.6039357,-0.1603,-0.47169998,-3.4517,0.5525,1.1092,9.728,0.42877504,-0.12870058,-0.013770647,0.034737,-0.052929,-0.50264,0.862174,0
29481,1.4406198,-0.44638455,5.2392793,0.60899997,-1.5399,-5.1376,0.59709996,1.2555,9.7074995,0.09730211,0.19390608,-0.12189379,0.040033,-0.058718,-0.502913,0.86141,0
29521,2.0909233,-0.5289845,9.064064,1.6843,-2.1885,-0.70489997,0.5123,1.3647,9.697599,1.1909603,0.14430383,-0.3211057,0.046903,-0.057923,-0.50501597,0.859885,0
29561,1.6356803,0.10692505,3.974662,1.7078999,-1.8872999,-6.1338,0.4789,1.8676,9.6152,0.3960152,-0.6785666,-0.74590135,0.069526,-0.070181,-0.510833,0.853984,0
29601,2.565914,2.1130362,14.781131,1.4975,-0.0751,5.5158,0.60109997,1.8795999,9.606,0.14203489,0.25457373,-0.092484996,0.065966,-0.076657,-0.520598,0.847791,0
29642,1.780022,2.1971207,11.839519,1.9459,0.6386,1.6376,0.6724,1.9797,9.5810995,-0.4324228,-0.8092568,-0.57360244,0.068043,-0.082861,-0.524616,0.84456,0
29681,-0.040672697,1.6351919,15.291939,-1.0907999,-0.38509998,6.0211,0.84569997,1.7579999,9.6105995,-0.47010443,-0.008866273,0.15685274,0.05287,-0.084844,-0.532863,0.840275,0
29721,1.3648291,3.3587298,11.773909,0.6083,1.6826999,2.552,0.95089996,1.6613,9.618,-0.11753047,-0.5929058,0.014992379,0.045999,-0.086614,-0.530927,0.841723,0
29761,0.35388216,2.4994605,10.031849,-0.45069999,1.2380999,0.4649,1.0978999,1.5174999,9.6261,-0.9510299,0.2512925,0.16372934,0.035742,-0.089037,-0.531017,0.841911,0
29801,1.6093057,2.3332741,9.384092,0.4757,1.0835,0.3394,0.9952,1.1915,9.682899,-0.20959659,0.7113962,0.24167573,0.024719,-0.075462,-0.528141,0.845435,0
