time(ms),acc.x,acc.y,acc.z,acclinear.x,acclinear.y,acclinear.z,gravity.x,gravity.y,gravity.z,gyroscope.x,gyroscope.y,gyroscope.z,RV.x,RV.y,RV.z,RV.cos,RV.heading
0,0.06476794,0.32449093,10.193889,-0.2033,-0.0911,0.23079999,0.3014,0.454,9.7914,0.044750243,-0.022881266,-0.00726057,0.021629,-0.017456999,-0.092858,0.995291,0
41,0.3302945,0.5506664,9.554005,-0.0475,0.030399999,-0.22739999,0.3123,0.49899998,9.788899,0.041992623,0.03502876,-0.012723451,0.024266,-0.018438,-0.093157,0.995184,0
80,0.21645498,0.54413503,9.565611,-0.0858,-0.0029,-0.2077,0.2918,0.5129,9.788799,0.033562683,0.029775318,0.005288348,0.024736,-0.016726,-0.093157,0.995203,0
120,0.31878316,0.59427917,9.721465,0.0963,0.056199998,-0.24689999,0.2762,0.5223,9.788799,-0.04464552,0.12695526,0.012601277,0.025218,-0.016512,-0.09305,0.995205,0
160,0.23389435,0.57379436,9.77134,-0.0199,0.0556,0.0162,0.2357,0.51309997,9.790299,0.06394886,-8.73E-04,0.007522369,0.025136,-0.014207,-0.092714,0.995273,0
200,0.2145013,0.5560486,9.629145,0.009699999,0.036599997,-0.1496,0.22549999,0.53209996,9.789599,0.01993166,0.073705256,0.017662732,0.025962,-0.013969,-0.092568,0.995269,0
240,0.23540749,0.6094871,9.545739,-0.0109,0.0543,-0.2573,0.20709999,0.5438,9.7893,0.040142573,-0.037681658,0.001710423,0.026878,-0.013236,-0.092175,0.995291,0
280,0.28652847,0.61734015,9.678483,0.0251,0.0786,-0.1188,0.22,0.55869997,9.788199,-0.007173303,0.049549896,0.012548917,0.027401,-0.013769,-0.092075,0.995279,0
320,0.19236933,0.6168134,9.632668,-0.116299994,5.00E-04,-0.070199996,0.20449999,0.5584,9.7885,0.031136673,-0.010314896,0.020559978,0.027408,-0.013008,-0.091841,0.995311,0
360,0.108103,0.52701163,9.854859,0.0648,0.031999998,-0.0598,0.20969999,0.5661,9.788,7.68E-04,0.023945916,-7.16E-04,0.027733,-0.013352,-0.091694,0.995311,0
401,0.32064107,0.70048594,9.539927,-0.0068,0.0793,-0.21679999,0.20289999,0.5678,9.788,-9.25E-04,0.009058259,0.014084807,0.027897,-0.012961,-0.091482,0.995331,0
440,-0.018483236,0.5894141,9.760682,-0.144,0.0286,-0.0499,0.20289999,0.56949997,9.7879,0.011746066,0.002199115,0.011239921,0.028066,-0.013179,-0.09147,0.995324,0
480,0.34889263,0.65549415,9.617499,0.0801,0.0819,-0.2367,0.1943,0.5652,9.7884,-0.08018043,0.0397586,0.032288592,0.027812,-0.012498,-0.090929,0.99539,0
520,0.17140569,0.4345955,9.731874,0.1453,-0.0953,0.1151,0.188,0.5464,9.789599,0.02766347,0.050440013,-0.03267256,0.027053,-0.012147,-0.09078,0.995429,0
561,0.03572149,0.56888145,9.518034,-0.16309999,-0.0044,-0.3064,0.1732,0.5545,9.7894,-0.01792453,-0.027488936,0.00986111,0.027317,-0.011355,-0.090987,0.995412,0
600,0.13348153,0.67202365,9.680811,-0.0116,0.081599995,-0.1498,0.1783,0.5459,9.7898,-0.05227261,0.01574287,0.013665928,0.026905,-0.011592,-0.090828,0.995435,0
640,0.18670943,0.5299996,9.904965,0.0166,0.0618,0.0157,0.1794,0.5265,9.7908,-0.04098033,-0.010629055,0.015655603,0.025671,-0.011717,-0.090515,0.995495,0
680,0.26837084,0.6679152,9.736395,0.078899994,0.1237,-0.0534,0.1858,0.5136,9.7914,0.003298672,-0.04956735,-0.002932153,0.025236,-0.011804,-0.090233,0.99553,0
720,0.05170518,0.48751694,9.75438,-0.1768,-0.0139,0.0546,0.1964,0.5141,9.7911,0.041329395,-0.025743606,0.026686084,0.025313,-0.012394,-0.090186,0.995526,0
760,0.27660692,0.672991,9.627085,0.0499,0.109799996,-0.24839999,0.2049,0.5275,9.790299,-0.00991347,0.006178466,0.027419122,0.025882,-0.01289,-0.089571,0.99556,0
801,0.12707464,0.49910486,9.583071,-0.0672,-0.015299999,-0.17989999,0.20449999,0.5252,9.7904,-0.021275563,-0.02453933,0.032847095,0.025704,-0.012861,-0.089087,0.995609,0
840,0.34133655,0.54862654,9.725305,0.0536,0.0257,-0.1313,0.2111,0.5136,9.790899,-0.070092425,0.015655603,0.038955748,0.024818,-0.012937,-0.08829,0.995701,0
880,0.2655936,0.4865688,9.84151,0.043399997,-0.0028,0.0532,0.2039,0.48749998,9.7923,-0.025115287,0.03359759,0.030124383,0.023656,-0.012408,-0.087594,0.995798,0
920,0.27959487,0.598809,9.724922,0.0756,0.0722,-0.0552,0.189,0.47689998,9.7932,-0.002007129,0.009093165,-0.00827286,0.023353,-0.011489,-0.087144,0.995855,0
960,-0.21358193,0.40038714,9.743136,-0.21419999,-0.0557,-0.0062,0.1848,0.47739998,9.7932,0.025045475,0.018867008,0.005654867,0.023506,-0.01152,-0.08759,0.995812,0
1001,0.3415951,0.632663,9.714512,0.0535,0.0845,-0.153,0.1818,0.4842,9.7929,-0.013543755,0.017278759,0.013735741,0.023794,-0.011395,-0.087289,0.995833,0
1040,0.040203433,0.49323428,9.700443,-0.1383,-0.0048,0.092,0.1775,0.48529997,9.793,0.06541494,0.014817845,0.021135937,0.024171,-0.011205,-0.087265,0.995828,0
1080,0.21958661,0.5342134,9.551457,0.0645,0.0729,-0.36789998,0.1708,0.5056,9.7921,0.01303761,-0.038048178,-1.57E-04,0.025014,-0.01088,-0.086736,0.995857,0
1120,0.19157445,0.5731623,9.690435,-0.0352,-0.0308,-0.1418,0.1823,0.5114,9.7916,-0.032079153,0.0286234,0.012845623,0.025116,-0.011542,-0.086689,0.995851,0
1160,0.20074902,0.5539034,9.76319,0.0099,0.0561,-0.0835,0.17639999,0.5028,9.7921,1.57E-04,-0.013264502,0.007906342,0.024741,-0.01122,-0.086429,0.995887,0
1201,0.25344062,0.6080794,9.6881275,0.0659,0.0964,-0.0933,0.1792,0.5017,9.7921,-0.011571533,0.012130038,-0.015271631,0.024707,-0.011319,-0.086342,0.995894,0
1240,0.18000565,0.5498045,9.717347,0.0381,0.078499995,-0.1131,0.1776,0.5,9.7922,0.007330383,-0.009896017,-0.027227135,0.024592,-0.011161,-0.086549,0.995881,0
1280,0.27114815,0.6924893,9.755548,-0.0251,-0.0184,0.044099998,0.1722,0.5087,9.7919,0.042847835,0.023422318,-0.003124139,0.025239,-0.010715,-0.086929,0.995837,0
1320,0.22164561,0.6730006,9.616216,0.109799996,0.17899999,-0.1707,0.1647,0.527,9.790999,0.055641096,-0.022881266,-0.05448918,0.026380999,-0.010871,-0.087409,0.995763,0
1361,0.032733526,0.5305168,9.48031,-0.115899995,-0.0074,-0.21869999,0.16499999,0.54679996,9.79,0.001884956,0.033353243,-0.025028022,0.027125,-0.010595,-0.088302,0.995667,0
1400,0.0952605,0.49836746,9.728197,-0.1015,-0.0672,-0.100999996,0.15689999,0.5484,9.79,-0.0145735,-0.034470253,-0.012095132,0.027105,-0.010627,-0.088762,0.995627,0
1440,0.17768808,0.6236225,10.160437,0.088,-0.0229,0.2223,0.1669,0.5426,9.7901,0.021397736,-0.016842427,-0.009494592,0.026814,-0.010942,-0.088905,0.995619,0
1480,0.28930575,0.7861218,9.704724,0.0242,0.2263,0.2129,0.1718,0.54829997,9.7897,0.12156218,-0.022619467,-0.031677727,0.027664,-0.011317,-0.089037,0.995579,0
1521,-0.08666052,0.61499375,9.499302,-0.1366,0.0977,-0.24599999,0.1758,0.57879996,9.7879,0.11353367,-0.010384709,-0.043336526,0.028608,-0.011572,-0.089276,0.995528,0
1560,0.2594644,0.66955286,9.655355,0.0787,0.0436,-0.1549,0.1832,0.62079996,9.7852,0.023509584,-0.03176499,0.008988446,0.030815,-0.01229,-0.08923,0.995458,0
1600,0.17826268,0.6928724,9.617825,2.00E-04,0.0657,-0.1248,0.1959,0.6304,9.7844,0.015533431,0.002949606,0.008691739,0.031229,-0.012906,-0.089099,0.995449,0
1640,0.09935937,0.6070642,9.584019,-0.19649999,-0.047,-0.2716,0.19649999,0.6354,9.783999,-0.020228365,-0.013316862,0.039898228,0.031382,-0.01289,-0.08878,0.995473,0
1680,0.21455878,0.65007365,9.837181,-0.032899998,0.0084,0.051599998,0.1996,0.6289,9.7844,0.006492625,0.019198623,0.041224677,0.03102,-0.012908,-0.088002,0.995553,0
1721,0.20622696,0.7980832,9.618715,-0.0229,0.1531,-0.16409999,0.18969999,0.6314,9.7844,0.018011797,-0.0198793,0.016441,0.031272,-0.01244,-0.087278,0.995615,0
1760,0.30542353,0.6993463,9.762846,0.095,0.0592,-0.0262,0.1959,0.6361,9.783999,0.006894051,-0.021624628,-0.012496557,0.031489,-0.012955,-0.087191,0.995609,0
1800,0.24257094,0.68049914,9.790044,0.0536,0.0278,0.0033,0.2013,0.639,9.7837,0.019652408,0.05284857,-0.005253441,0.031624,-0.012938,-0.087351,0.995591,0
1841,0.14889061,0.68595797,9.587275,-0.0796,0.0286,-0.1827,0.1875,0.6479,9.7834,0.017208947,-0.016772615,0.006038839,0.032252,-0.012507,-0.087401,0.995572,0
1880,0.16692373,0.7040485,9.600767,-0.025799999,0.039899997,-0.1428,0.1927,0.6545,9.7828,0.030455995,-0.001047198,0.003892084,0.032495,-0.01271,-0.087313,0.995569,0
1920,0.22306299,0.74322724,9.619002,-0.0394,0.0733,-0.2698,0.1963,0.66209996,9.7823,-0.03181735,-0.031503193,0.003543018,0.032681,-0.013093,-0.087276,0.995561,0
1960,0.180858,0.6932555,9.835735,0.0162,0.065299995,0.043399997,0.2092,0.6505,9.7828,-0.011484266,0.006544985,-0.006387905,0.031983,-0.013558,-0.087437,0.995564,0
2000,0.19347066,0.6839659,9.665469,0.006,0.0481,-0.093899995,0.20969999,0.648,9.7829,0.015236724,-0.013386675,-0.01563815,0.031998,-0.013554,-0.087562,0.995552,0
2041,0.13675681,0.62729996,9.738779,-0.0458,-0.0162,0.0241,0.21249999,0.6536,9.782499,0.037018433,0.023195425,-0.007557276,0.032265,-0.013736,-0.0879,0.995511,0
2080,0.18691054,0.7865527,9.342597,-0.24059999,-0.02,-0.43609998,0.2013,0.6673,9.781799,-0.024242623,-0.008970993,0.040055305,0.033098,-0.013097,-0.0877,0.99551,0
2120,0.32213503,0.74383056,10.082443,0.1973,0.1576,0.132,0.2047,0.6563,9.782499,-0.0230558,0.002949606,-0.006352998,0.032168,-0.013441,-0.087333,0.995568,0
2161,0.23530214,0.7236618,9.425848,0.004,0.094399996,-0.1135,0.20179999,0.6508,9.7829,0.027384216,-0.009442232,0.004590216,0.032363,-0.013059,-0.087251,0.995574,0
2200,0.1538993,0.5793968,9.81072,-0.0031,-0.0902,-0.0246,0.20899999,0.65889996,9.7822,0.004450589,-0.014992379,-0.013596115,0.032554,-0.013823,-0.087436,0.995542,0
2240,0.057547033,0.747872,9.570706,-0.1277,-0.032199997,-0.0244,0.21599999,0.6598,9.782,0.012007865,0.0230558,0.007819075,0.032626,-0.013888,-0.087547,0.995529,0
2280,0.41665813,0.7162111,10.000763,0.1381,0.103999995,0.1024,0.2149,0.65099996,9.782599,-0.008307767,-0.04733333,-0.009320058,0.031949,-0.014014,-0.087209,0.995578,0
2320,0.09464759,0.681294,9.67768,-0.0524,0.035299998,0.0243,0.2289,0.6511,9.7823,0.051015973,-0.01308997,-0.004590216,0.032305,-0.014631,-0.087519,0.995531,0
2360,0.2947454,0.65436405,9.743319,0.008599999,-0.022599999,-0.111499995,0.2365,0.6699,9.7808,0.030717794,-0.014713125,-0.001727876,0.03309,-0.015095,-0.087484,0.995501,0
2401,0.21937591,0.76721716,9.505718,0.0138,0.0423,-0.2183,0.2411,0.68329996,9.779799,0.0389732,-0.006248279,-0.014852752,0.033883,-0.015368,-0.087629,0.995458,0
2440,0.15475161,0.76760024,9.402068,-0.033999998,0.0585,-0.39389998,0.2399,0.6965,9.7789,-0.039776053,0.026476644,-0.002303835,0.034287,-0.015166,-0.087839,0.995428,0
2480,0.3787244,0.8270243,9.850934,0.0907,0.1227,-0.071499996,0.23279999,0.6814,9.7801,-0.055676002,0.009005899,-0.001553343,0.033284,-0.014878,-0.087793,0.995471,0
2521,0.28846303,0.76357794,9.802177,0.055,0.1317,0.074099995,0.22929999,0.6626,9.7815,-0.01754056,0.018971728,-0.015795229,0.032552,-0.014521,-0.087918,0.995489,0
2560,0.022237346,0.45307875,9.816543,-0.2014,-0.1994,0.0345,0.2223,0.65819997,9.782,0.035377823,0.010524335,0.006178466,0.032564,-0.014207,-0.088174,0.995471,0
2600,0.24747425,0.6783157,9.5829935,-0.0268,-0.0392,-0.2094,0.2206,0.67249995,9.781,0.028274333,-0.001553343,0.04548328,0.033393,-0.014359,-0.087651,0.995487,0
2640,0.18253393,0.9179944,9.441132,0.091699995,0.2209,-0.366,0.22199999,0.6813,9.780399,-0.025534166,-0.010018189,0.003909538,0.033577,-0.014327,-0.087044,0.995535,0
2680,0.366332,0.82072276,9.737275,0.088999994,0.17459999,-0.1314,0.22469999,0.6687,9.781199,-0.05173156,-0.010471975,-0.001221731,0.03299,-0.014392,-0.086972,0.99556,0
2720,0.32213503,0.7698891,9.707482,0.039499998,0.104899995,0.0339,0.2252,0.6501,9.7824,-0.019861847,0.007644542,-0.005270894,0.032043,-0.014334,-0.087,0.995589,0
2760,0.08757032,0.4796352,9.836539,-0.1281,-0.1591,0.0235,0.22369999,0.64169997,9.783,-0.020699605,-0.003926991,-0.007225663,0.031501,-0.014348,-0.087276,0.995582,0
2801,0.25513572,0.72998255,9.655959,0.0011,0.060799997,-0.114099994,0.2254,0.6356,9.7834,-3.49E-05,-0.004974188,0.025883233,0.031296,-0.014226,-0.087007,0.995614,0
2840,0.23091596,0.7162302,9.765862,0.0464,0.1296,-0.123799995,0.22809999,0.63519996,9.783299,-0.005183628,-0.005742133,-0.004921828,0.031224,-0.014468,-0.086714,0.995638,0
2880,0.22248837,0.6829604,9.7209,-0.0431,0.042799998,-0.0062,0.2294,0.6337,9.7834,0.005340708,0.015620696,0.009128072,0.03123,-0.01444,-0.086717,0.995638,0
2920,0.27939376,0.69650203,9.692782,0.058599997,0.0495,-0.1237,0.22569999,0.6369,9.783299,0.022584561,-0.024818582,-0.014084807,0.031482,-0.014395,-0.086687,0.995633,0
2960,0.18686266,0.7126102,9.545346,-0.0264,0.030599998,-0.1426,0.2323,0.64599997,9.782499,-1.22E-04,0.020071287,-0.002565634,0.031877,-0.014599,-0.086939,0.995596,0
3001,0.3827371,0.7408522,9.668926,0.0079,0.0796,-0.2408,0.22729999,0.64599997,9.7827,-0.025446901,-0.025167648,0.008517207,0.031715,-0.014461,-0.086763,0.995618,0
3040,0.31148562,0.7152343,9.832345,0.069299996,0.071499996,0.033099998,0.2349,0.6362,9.7831,-0.015428711,0.004817109,-0.017453292,0.031205,-0.014742,-0.086899,0.995619,0
3080,0.27384877,0.6951325,9.776598,0.1004,0.094399996,-0.0357,0.233,0.63119996,9.7835,0.003228859,-0.019914206,-0.038920842,0.031038,-0.014687,-0.087324,0.995587,0
3120,0.12248736,0.63481784,9.859773,-0.0704,-0.0255,0.0625,0.23709999,0.6335,9.783199,0.017680185,0.01685988,-0.025411993,0.031174,-0.01487,-0.088063,0.995515,0
3160,0.13279201,0.5795596,9.682401,-0.1944,-0.0435,-0.0546,0.23359999,0.64169997,9.7828,0.03508112,-0.007138397,0.001919862,0.031747,-0.014833,-0.088455,0.995463,0
3200,0.15499105,0.6398935,9.655586,0.037499998,-0.0273,-0.1713,0.23699999,0.65489995,9.781799,0.020472713,-0.002216568,-0.002565634,0.032317,-0.015039,-0.088455,0.995442,0
3241,0.17535134,0.74271965,9.629633,-0.1399,0.0545,-0.2199,0.23799999,0.6613,9.7814,0.005969026,0.003141593,0.029461158,0.032535,-0.01508,-0.08843,0.995436,0
3280,0.20822851,0.74384975,9.691585,0.091299996,0.13239999,-0.0435,0.2323,0.66179997,9.7815,-6.81E-04,0.024626596,0.001029744,0.032583,-0.014672,-0.087758,0.99549997,0
3320,0.20695479,0.54810935,9.61317,-0.1195,-0.1028,-0.1809,0.22739999,0.66179997,9.7816,-0.009686577,-3.67E-04,0.023823744,0.032629,-0.014567,-0.087673,0.995508,0
3360,0.2655074,0.7782496,9.61498,0.0087,0.0075,-0.15169999,0.22659999,0.65929997,9.781799,-0.011257374,-0.00424115,0.026912976,0.032475,-0.014435,-0.087145,0.995561,0
3400,0.44819456,0.88298154,9.778993,0.1846,0.2384,-0.0735,0.2272,0.65389997,9.7821,-0.036913715,0.002827433,-0.00832522,0.032232,-0.014444,-0.086765,0.995602,0
3441,0.2621555,0.68458843,9.88018,0.0156,0.0431,0.0924,0.2285,0.64309996,9.7828,0.013508848,0.009477138,-0.024783675,0.031671,-0.014525,-0.087131,0.995587,0
3480,0.054501604,0.6622362,9.542043,-0.077599995,0.0067,-0.2111,0.22469999,0.6502,9.7824,0.021327924,7.33E-04,-0.020158553,0.032197,-0.014296,-0.087644,0.995528,0
3520,0.20211852,0.718136,9.73876,-0.0579,0.009,-0.1714,0.22469999,0.6577,9.781899,-0.012845623,0.002216568,0.004485496,0.032387,-0.014429,-0.087843,0.995503,0
3560,0.28863537,0.7915135,9.80982,0.0705,0.1304,-0.083399996,0.2234,0.6533,9.7823,-0.001919862,-0.003735005,-0.001780236,0.032204,-0.014279,-0.087725,0.995521,0
3600,0.2468805,0.695937,9.827834,0.0581,0.049799997,0.0442,0.2262,0.6562,9.782,0.044767696,-0.004660029,-0.014835299,0.032499,-0.014529,-0.087819,0.99549997,0
3641,0.123703614,0.7445776,9.520198,-0.1787,0.0311,-0.2192,0.2277,0.6749,9.7807,0.043161992,-0.006265732,0.019704767,0.033558,-0.014634,-0.087936,0.995453,0
3680,0.3489884,0.80013263,9.62698,0.0738,0.105299994,-0.2182,0.23009999,0.6889,9.779699,-0.004869469,-8.73E-04,0.002146755,0.034017,-0.014808,-0.087615,0.995463,0
3720,0.22919214,0.7414938,9.675152,0.0572,0.0576,-0.1007,0.2271,0.68759996,9.779799,-2.44E-04,0.013473942,-0.005026548,0.033926,-0.014486,-0.087573,0.995474,0
3760,0.20903295,0.70091695,9.60479,-0.065299995,0.0471,-0.189,0.22219999,0.68829995,9.7799,-8.55E-04,-0.009372418,0.007470009,0.033995,-0.01439,-0.087568,0.995474,0
3800,0.037770927,0.61938953,9.602196,-0.19759999,-0.099999994,-0.1594,0.227,0.6884,9.779799,-0.026529005,0.005497787,0.028483773,0.033919,-0.014661,-0.087388,0.995488,0
3840,0.24509922,0.75534195,9.564041,-0.0132,0.027099999,-0.2091,0.2289,0.6789,9.780399,-0.036599554,-0.026738444,0.02427753,0.033315,-0.01472,-0.086755,0.995563,0
3881,0.08945695,0.7034356,9.802589,-0.0828,0.0326,-0.023599999,0.23969999,0.6635,9.781199,-0.041224677,0.02370157,0.019600047,0.03243,-0.015122,-0.086368,0.99562,0
3920,0.11603259,0.8077079,9.710471,-0.1468,0.1256,-0.1129,0.235,0.649,9.7823,-0.03169518,-0.028117254,0.012269665,0.031814,-0.014826,-0.08602,0.995674,0
3960,0.40002322,0.8823686,9.844574,-0.036,0.1858,0.111999996,0.242,0.6378,9.7828,-0.001832596,0.010541788,0.020036379,0.031297,-0.015075,-0.085658,0.995718,0
4000,0.406545,0.88721454,9.755778,0.35169998,0.3249,-0.035299998,0.2366,0.6361,9.7831,0.024609143,-0.01144936,-0.094631754,0.031346,-0.01471,-0.085974,0.995695,0
4040,0.26382187,0.77617145,9.624164,0.0095,0.12719999,-0.1228,0.2355,0.6475,9.7824,0.036459927,0.005707227,-0.07962192,0.032054,-0.014869,-0.087675,0.995522,0
4081,0.18623058,0.80823463,9.4288645,0.0129,0.1628,-0.3574,0.2322,0.6609,9.7815,-0.011152654,-0.007976155,-0.121387646,0.032566,-0.01481,-0.089579,0.995336,0
4120,0.38395333,0.666019,9.901394,0.120299995,0.014699999,0.083299994,0.23279999,0.6562,9.781899,-0.028204521,0.003839724,-0.09655161,0.032037,-0.014875,-0.091804996,0.99514997,0
4160,0.43469125,0.83549976,9.575408,0.22459999,0.1153,-0.0346,0.22639999,0.6495,9.7824,0.035918877,-0.012566371,-0.12639675,0.032077,-0.014521,-0.093778,0.99497,0
4200,-0.09539457,0.6171486,9.601524,-0.2094,-0.0041,-0.2005,0.22899999,0.6611,9.7816,-0.018675024,0.013508848,-0.097337015,0.032445,-0.014898,-0.096406996,0.99470097,0
4241,-0.18675731,0.58784354,9.624403,-0.3322,-0.0786,-0.15179999,0.2243,0.6572,9.782,-0.047368236,0.04082325,-0.067718774,0.032254,-0.014658,-0.09732,0.994622,0
4280,-0.22303426,0.3859549,9.808891,-0.4739,-0.2298,0.0128,0.2092,0.6318,9.783999,-0.053895768,0.040282197,0.012095132,0.030734,-0.013624,-0.098877,0.994531,0
4320,0.39695865,0.6479285,9.708316,0.100899994,-0.053299997,-0.018099999,0.19319999,0.6123,9.7856,-0.022095868,0.058398716,0.027314402,0.03,-0.012568,-0.098192,0.994635,0
4360,0.50699615,0.8067119,9.553631,0.2069,0.1515,-0.274,0.17549999,0.6035,9.7864,-0.045989424,0.008133234,-0.016842427,0.029638,-0.011911,-0.097949,0.994678,0
4400,0.32258517,0.8699284,9.769809,0.2527,0.29729998,-0.1183,0.1689,0.5852,9.7877,-0.064489916,0.016283922,-0.096778505,0.02854,-0.011308,-0.098784,0.994635,0
4440,-0.04073016,0.6704244,9.928899,-0.1805,0.1214,0.1549,0.1609,0.565,9.789,0.01701696,0.004782202,-0.13184217,0.02785,-0.011064,-0.100428,0.994492,0
4481,-0.11791922,0.3718387,9.713325,-0.31,-0.1516,0.0277,0.1531,0.5733,9.7886,0.109275065,0.013945181,-0.088453285,0.028671,-0.010655,-0.103519,0.994156,0
4520,0.48902047,0.8036665,9.139041,0.0897,-0.0095,-0.4795,0.14549999,0.61759996,9.786099,0.11147418,0.009354965,-0.064734265,0.03123,-0.010763,-0.104866,0.993937,0
4560,0.496002,0.98727304,9.286801,0.3296,0.3321,-0.7417,0.141,0.65819997,9.7835,-0.001972222,-0.005253441,-0.11950269,0.032827,-0.010787,-0.106515,0.99371,0
4600,0.25798002,0.8615104,9.790839,0.1574,0.21589999,-0.1241,0.13669999,0.6568,9.7836,-0.05745624,0.03249803,-0.14414674,0.032315,-0.010362,-0.109064996,0.993455,0
4641,-0.10576625,0.83968484,9.972022,-0.2382,0.1963,0.1391,0.1205,0.6371,9.7851,-0.05087635,0.055361845,-0.12325515,0.031432,-0.0095,-0.112003,0.993165,0
4680,0.4401692,0.8234905,10.1631565,0.2342,0.1953,0.3338,0.099199995,0.6185,9.7866,-0.003700098,0.05581563,-0.12152728,0.030617,-0.008347,-0.114237,0.99294597,0
4720,0.46794194,1.191077,9.236198,0.3717,0.5282,-0.50909996,0.0752,0.6225,9.7865,0.02989749,0.04436627,-0.103183866,0.03145,-0.007263,-0.116500996,0.992665,0
4760,0.28604007,1.5005898,9.216603,0.35439998,0.81409997,-0.6465,0.057299998,0.6274,9.7863,-0.16741198,0.01966986,-0.15533431,0.030934,-0.006493,-0.118826,0.992411,0
4800,-0.46553814,0.9179465,10.566569,-0.297,0.6199,0.2218,0.0519,0.5568,9.7906,-0.24479988,-0.049497537,-0.12255702,0.02787,-0.006071,-0.121184,0.99222,0
4840,-0.9845628,0.40083724,10.599753,-0.956,-0.0085,1.0313,0.063599996,0.4694,9.795199,0.08194321,0.009407325,0.013578662,0.023253,-0.006052,-0.123709,0.992027,0
4880,-0.8658965,0.62249243,9.166527,-1.1001999,-0.033099998,-0.2516,0.0607,0.5038,9.7935,0.15011577,-0.034924038,0.19313814,0.026037,-0.00646,-0.122294,0.992131,0
4920,0.9349645,1.2381757,9.49774,0.35599998,0.4773,-0.45479998,0.075399995,0.5523,9.7907,-0.007086037,0.023631757,0.25068164,0.027556,-0.007261,-0.117506,0.992663,0
4960,1.1018882,1.6619303,9.342003,1.1733999,1.0583,-0.39609998,0.072,0.5499,9.790899,-0.018867008,0.030072022,0.067125365,0.027386,-0.006637,-0.113613,0.993125,0
5000,0.19324082,1.1983364,9.487465,0.3965,0.7786,-0.3278,0.0643,0.5452,9.7912,0.05576327,-0.003455752,0.017854718,0.027376,-0.006501,-0.112861,0.993212,0
5041,-0.45634443,1.1034397,8.889489,-0.5111,0.5123,-0.8752,0.0624,0.5679,9.7899,0.07496189,-8.90E-04,0.086149454,0.028861,-0.00634,-0.112102,0.993257,0
5080,-0.1698351,0.96071655,9.225644,-0.3428,0.3513,-0.7567,0.0682,0.5901,9.7886,-0.042376593,-0.024853488,0.18917623,0.029409999,-0.006972,-0.109808,0.993493,0
5120,0.66406536,1.4219834,9.703891,0.37759998,0.7127,-0.3261,0.083299994,0.5719,9.789599,-0.09625491,0.009494592,0.18448131,0.028103,-0.007387,-0.105744,0.993968,0
5160,0.380793,1.5105306,9.759293,0.41849998,0.97169995,0.0641,0.0815,0.5384,9.7915,0.00137881,0.036529742,0.102869704,0.026889,-0.006972,-0.103091,0.994283,0
5200,-0.29261932,1.1201321,9.390653,-0.3042,0.60069996,-0.4067,0.070599996,0.5367,9.7916,-0.032288592,0.02576106,0.04022984,0.026885,-0.006263,-0.101042,0.99449897,0
5241,-0.61080873,0.79752773,9.748462,-0.6705,0.3644,-0.2895,0.0625,0.5279,9.7922,-0.16048302,0.093951076,0.1248434,0.026468,-0.005882,-0.10056,0.994561,0
5280,0.17748696,1.0688674,10.572967,-0.15689999,0.39819998,0.746,0.0196,0.4549,9.796,-0.0461116,0.14837044,0.22851595,0.022572,-0.002668,-0.096031,0.995118,0
5320,0.8976628,1.793123,10.064707,0.8182,1.183,0.5495,-0.0336,0.4448,9.7964,0.2046224,0.11971214,0.13767157,0.023428,2.99E-04,-0.091686,0.995512,0
5360,0.44015005,1.7382574,9.064984,0.49629998,1.2377,-0.4464,-0.0747,0.52739996,9.7921,0.24242623,0.023509584,0.05920157,0.028573,0.001519,-0.089703,0.995557,0
5401,0.08111555,1.136518,9.550068,0.5015,0.75909996,-0.5002,-0.079799995,0.6137,9.7871,0.059131756,-0.04639085,-0.02804744,0.032008,0.001035,-0.089241,0.995495,0
5440,0.24324133,1.0784729,9.622373,0.2738,0.4077,-0.1461,-0.062299997,0.6344,9.7859,-0.08258898,-0.01870993,0.001815143,0.032363,0,-0.089402,0.995469,0
5480,0.102845326,0.9961124,10.398162,0.2259,0.5047,0.0769,-0.049399998,0.59349996,9.7885,-0.2534567,-0.15652113,-0.09400343,0.029202,-5.98E-04,-0.090075,0.995506,0
5520,-0.07785944,0.94105536,11.232876,-0.0775,0.3954,1.6306,0.0089,0.4969,9.794,-0.020874137,-0.09594075,-0.072500974,0.02484,-0.003002,-0.091674,0.995474,0
5560,-0.6665936,0.7743423,10.350928,-0.608,0.26369998,0.8366,0.049,0.50119996,9.7937,0.23851669,-0.18004817,0.014922565,0.02598,-0.005778,-0.093085,0.995302,0
5601,0.021815965,0.8708286,8.94107,-0.117699996,0.30879998,-0.52059996,0.117699996,0.5933,9.7879,0.15184364,-0.053145275,0.10311405,0.030684,-0.009472,-0.091919,0.995248,0
5640,-0.32485485,-0.026307488,9.204365,-0.41689998,-0.46019998,-0.5464,0.1424,0.6465,9.7842,0.1251052,-0.07291985,0.20978858,0.032551,-0.010369,-0.089246,0.995423,0
5680,0.28389487,0.3936738,8.744745,-0.0093,-0.4569,-0.97419995,0.176,0.69229996,9.780499,0.046198864,-0.06408849,0.25539404,0.034419,-0.01198,-0.085766,0.995648,0
5720,1.0049136,0.65935355,9.621061,0.371,-0.028099999,-0.6986,0.2173,0.695,9.7795,-0.18488273,-0.13695599,0.14971434,0.034446,-0.013924,-0.080951,0.996025,0
5760,1.5376712,0.89230937,10.707972,1.2607,0.1566,0.8279,0.269,0.6278,9.7828,-0.09604547,0.028379053,-0.05609488,0.03012,-0.016253,-0.078173,0.996352,0
5800,1.3901693,0.61938953,10.546344,1.0516,0.12709999,0.89449996,0.2624,0.5985,9.7848,0.119415425,0.007295476,-0.23396139,0.029680999,-0.015726,-0.080648,0.996176,0
5842,1.5153956,0.38613683,9.792601,1.2442,-0.2096,0.1034,0.2561,0.6509,9.7816,0.20371483,-0.05688028,-0.3617544,0.03199,-0.015827,-0.084371,0.995794,0
5880,0.17793708,-0.06043923,9.243649,0.3173,-0.66249996,-0.42029998,0.26119998,0.73109996,9.7758,0.07993608,0.07735299,-0.42076397,0.036594998,-0.01638,-0.093477,0.994813,0
5920,-0.43910617,-0.003620033,9.086781,-0.8042,-0.7827,-0.8796,0.22559999,0.76299995,9.7743,-0.05810201,-0.019495327,-0.26876324,0.037534,-0.015253,-0.100862,0.994075,0
5960,-0.68671453,-0.112565786,9.712041,-0.58959997,-0.82559997,0.0703,0.2267,0.7471,9.775499,0.079220496,-0.008447394,-0.20045106,0.036718998,-0.01553,-0.105881,0.993579,0
6000,-0.9135316,0.34518644,8.587255,-1.3220999,-0.6749,-1.0056,0.22379999,0.7827,9.772699,0.10161307,-0.06897541,-0.019216076,0.039241,-0.015855,-0.108504,0.993194,0
6040,-0.27302518,0.44606853,9.638673,-0.6495,-0.33069998,-0.5712,0.2474,0.81119996,9.769899,-0.22006856,-0.013613568,0.0198793,0.039165,-0.01732,-0.108538,0.993169,0
6081,0.5416738,0.852738,10.539314,0.2297,0.12109999,0.7522,0.24399999,0.7186,9.7772,-0.3230779,0.14889404,0.08194321,0.033375,-0.015474,-0.107541,0.993519,0
6120,0.41929173,1.3814256,9.931264,0.4319,0.6929,0.4811,0.1859,0.60139996,9.7864,-0.08703957,0.14833553,-0.00418879,0.028824,-0.011713,-0.106515,0.993824,0
6160,-0.19816329,1.2155936,8.79327,-0.085499994,0.7723,-0.64919996,0.1346,0.5711,9.789,-0.027279496,0.07782423,0.04860742,0.02822,-0.009515,-0.106307,0.993887,0
6200,-0.38634753,0.68958753,8.832794,-0.56259996,0.2686,-1.1309999,0.111499995,0.555,9.790199,-0.1605703,0.011274827,0.14234905,0.027555,-0.008637,-0.105252996,0.994026,0
6240,-0.33000717,0.69642544,9.1576395,-0.3893,0.13679999,-0.58529997,0.104899995,0.49069998,9.793799,-0.21509437,0.077841684,0.19271925,0.024351,-0.007884,-0.102316,0.994422,0
6280,0.36610216,1.1257344,10.135978,0.021599999,0.6146,-0.1387,0.0862,0.3954,9.7982,-0.32005847,0.06373943,0.18177605,0.018042,-0.005955,-0.0974,0.995063,0
6321,0.2377538,1.1886923,10.901001,0.4465,0.96389997,1.1222,0.0633,0.28149998,9.8024,0.00270526,0.1243198,0.035430185,0.013411,-0.004019,-0.094621,0.995414,0
6360,-0.6426324,0.54398173,9.56337,-0.5169,0.42229998,0.121999994,0.0167,0.2935,9.802199,0.31253612,0.08358382,0.071314156,0.016119,-0.001818,-0.093878,0.995451,0
6400,-0.33328244,0.49672025,8.474133,-0.486,-0.0174,-1.0598999,-0.014099999,0.41939998,9.7976,0.36643186,0.019512782,0.16931438,0.023345,-0.001256,-0.091611,0.99552,0
6440,-0.03071282,0.9358264,8.601648,-0.1352,0.2704,-1.4553,-0.021599999,0.5532,9.790999,0.08646361,0.030438542,0.18802431,0.029137,-0.001391,-0.08801,0.995692,0
6480,-0.12261186,1.5550244,10.120109,-0.0085,0.6806,-0.0315,-0.030599998,0.5844,9.7891,-0.001937316,0.006003933,0.19223057,0.029773999,-8.45E-04,-0.084222,0.996001,0
6521,0.49986142,2.1401672,11.020232,0.4822,1.5545,1.1745,-0.030299999,0.5837,9.7892,-0.00275762,0.021397736,0.10480702,0.029783,-8.27E-04,-0.080702,0.996292,0
6560,1.0060053,2.002204,11.776666,0.7295,1.4319999,1.9397999,-0.0332,0.58809996,9.788899,0.13171999,0.038152896,0.07916813,0.030039,-7.01E-04,-0.079173,0.996407,0
6600,-0.076681495,1.5042673,10.963902,0.92149997,1.0948,1.5116,-0.0389,0.64089996,9.7856,0.3815988,-0.010419616,-0.12857841,0.034236,-7.01E-04,-0.078626,0.996315,0
6640,-1.4366839,1.3564206,8.743682,-1.5841999,0.50769997,-0.5755,-0.0338,0.79649997,9.774099,0.35417965,-0.09786061,0.12482595,0.042929,-0.002131,-0.079706,0.995891,0
6680,-1.106332,1.3791847,8.9632015,-1.1084,0.46679997,-0.8103,-0.0041,0.9034,9.7649,-5.93E-04,0.026424285,0.2085494,0.046604,-0.003641,-0.077461,0.995898,0
6720,0.9213176,1.6062604,10.44075,0.8323,0.6734,0.60789996,-0.0064,0.8878,9.7663,-0.09772099,0.030839968,0.17278759,0.044626,-0.002759,-0.071454,0.996441,0
6761,1.1418618,2.2593505,10.798501,1.1659,1.3788999,1.0574,-0.0142,0.8527,9.7694,0.13721779,0.061784655,-0.15037757,0.043693,-0.002103,-0.069623,0.996613,0
6800,0.15967411,0.97070515,10.572641,0.5179,0.6497,0.73859996,-0.037299998,0.9095,9.764299,0.35391787,-0.040352013,-0.34880406,0.04783,-0.001509,-0.074093,0.996102,0
6840,-1.1353017,-0.57319105,9.687514,-0.8059,-1.384,0.4596,-0.0374,1.0604,9.749,0.6755995,-0.007557276,-0.25059438,0.057123,-0.002751,-0.08119,0.995056,0
6880,-0.6204717,-0.25619873,7.7620497,-0.561,-1.7166,-1.5784999,-0.0469,1.3145,9.717999,0.41711622,0.08122762,-0.10807078,0.069977,-0.003133,-0.084683,0.993942,0
6920,-0.57836246,0.13120225,8.333795,-0.38709998,-1.4611,-1.8417,-0.0835,1.4611,9.696799,-0.078155845,0.11550589,-0.051539574,0.074997,-0.001619,-0.086185,0.99345,0
6960,-0.38886625,0.7947888,9.618983,-0.4838,-0.83669996,-0.24659999,-0.1241,1.4348999,9.7002,-0.119083814,0.081297435,0.07585201,0.07309,2.72E-04,-0.086218,0.993591,0
7001,0.2834256,1.2401485,9.877614,0.2755,-0.2087,0.0994,-0.148,1.3855,9.7071,-0.20080014,0.008988446,0.080389865,0.071208,0.001519,-0.084855996,0.993844,0
7040,1.1898608,1.5766009,10.69262,1.3713,0.23629999,1.0196999,-0.14549999,1.3033,9.7185,-0.07705629,0.0360585,-0.13589133,0.066148,0.001956,-0.084565,0.994217,0
7080,0.13796349,1.7543274,8.605125,0.6453,0.4429,-0.5125,-0.1648,1.283,9.7209,0.1425934,-0.05497787,-0.20661208,0.066638,0.002718,-0.087817,0.993901,0
7120,-0.7495288,1.4023893,7.4334407,-0.4289,0.2671,-2.1243,-0.1496,1.3313,9.7147,-0.033580136,-0.19484855,-0.12714724,0.068647,6.68E-04,-0.091792,0.993408,0
7160,-0.96012276,0.882656,8.295852,-0.77849996,-0.3373,-1.6379,-0.0844,1.3081,9.718599,-0.30248302,-0.056374136,0.07705629,0.065757,-0.002444,-0.093226,0.993468,0
7200,-0.63985515,0.8480167,9.59823,-0.6256,-0.3181,-0.23709999,-0.0613,1.184,9.7347,-0.42879248,0.012845623,0.26469663,0.05836,-0.002187,-0.090327,0.994198,0
7241,-0.18784906,1.0606122,10.666207,-0.15519999,-0.042099997,0.8587,-0.050699998,1.0325,9.752,-0.14692181,-0.02480113,0.2898119,0.052748,-0.001972,-0.086258,0.994873,0
7280,0.8922328,2.07063,9.317313,0.4865,0.7029,-0.17289999,-0.045199998,1.0131999,9.754,0.08019788,0.09070476,0.37032396,0.052231,-0.001474,-0.077818,0.995597,0
7320,1.5184697,2.5382082,9.542455,1.5224999,1.4404,-0.4543,-0.0613,1.0404999,9.750999,-0.006370452,0.005497787,0.13046336,0.053272,-7.52E-04,-0.071618,0.996008,0
7360,0.8565304,2.3544004,9.6632185,1.2451999,1.4247999,-0.1213,-0.068399996,1.0365,9.7514,-0.09011135,0.18554595,-0.043563418,0.052733,5.03E-04,-0.070184,0.996139,0
7400,-0.30156407,1.5761701,9.394206,0.2269,0.80579996,-0.3599,-0.1387,0.9985,9.7546,-0.19257963,0.15976743,-0.092310466,0.050582,0.004466,-0.071315,0.99616,0
7441,-0.8530924,0.8777718,9.726071,-0.5272,0.1318,-0.1405,-0.18859999,0.9273,9.760799,-0.18983947,0.060877085,0.08749335,0.047037,0.006243,-0.072174996,0.996262,0
7480,-0.63097745,0.9234244,10.15766,-0.62689996,0.0337,0.1174,-0.2065,0.8488,9.7676,-0.23392648,-0.03281219,0.2700897,0.042721,0.00776,-0.068575,0.9967,0
7520,-0.36139995,0.72966653,10.84537,-0.3805,0.0083,0.91419995,-0.1784,0.76629996,9.775,-0.11402236,-0.16554448,0.30414107,0.038894,0.005653,-0.06323,0.997224,0
7560,-0.030875625,0.62170714,11.292769,0.1038,-0.123799995,1.508,-0.117599994,0.7255,9.778999,0.04321435,-0.01891937,0.3588048,0.037109,0.003694,-0.05683,0.997687,0
7600,1.1140891,1.3254588,10.246349,0.9095,0.4538,0.80399996,-0.095599994,0.75229996,9.7772,0.18708184,-0.08698721,0.3055897,0.038585998,0.002911,-0.051115,0.997942,0
7641,0.8070662,0.2646742,10.539841,0.8878,-0.073,0.34809998,-0.044499997,0.8183,9.7723,0.0365821,-0.20568705,0.13636257,0.042159,-8.63E-04,-0.044724,0.998109,0
7680,0.8954793,-0.014010868,10.398296,0.8323,-0.8763,0.8497,0.030599998,0.83699995,9.7708,0.15144221,-0.13241813,0.07269296,0.042992,-0.003873,-0.042149,0.998178,0
7720,0.6296559,0.062153477,9.383824,0.5591,-0.9152,-0.0655,0.0881,0.9054,9.764299,0.28628635,-0.11993903,-0.097354464,0.045986,-0.006422,-0.041694,0.99805,0
7760,0.040423702,0.17958428,8.192796,0.22299999,-0.7486,-1.2508999,0.13,1.0134,9.7532,0.06925467,0.117425755,-0.20898573,0.052089,-0.008412,-0.044632,0.997609,0
7800,-0.023558944,0.36544138,8.39863,-0.33969998,-0.848,-1.5912,0.1043,1.0440999,9.750299,-0.04330162,-0.14060372,-0.16884315,0.05305,-0.008779,-0.048547,0.997372,0
7840,-0.80044866,0.42723092,8.932747,-0.5466,-0.5226,-0.9359,0.1445,1.0228,9.752,-0.10983357,-0.16601571,-0.14280283,0.051134,-0.010393,-0.05195,0.997285,0
7881,-0.053543925,0.6062885,9.233133,-0.275,-0.34329998,-0.5997,0.19579999,0.9702,9.756499,-0.4245688,-0.047507863,-0.07082546,0.047424998,-0.013123,-0.054066,0.997324,0
7920,-0.29098168,0.12265016,10.898962,-0.532,-0.5955,0.79109997,0.2182,0.81119996,9.7705,-0.23570672,-0.15278612,-0.08381071,0.038806,-0.013884,-0.055872,0.997586,0
7960,-0.5871157,0.27506503,9.646124,-0.71849996,-0.5934,0.4131,0.25759998,0.73069996,9.7759,0.001099557,0.07702138,0.02555162,0.036461,-0.015047,-0.057195,0.997583,0
8000,-0.3694828,0.6424601,9.28277,-0.64989996,-0.2013,-0.3718,0.23799999,0.7309,9.7764,0.011466813,0.06742207,0.11950269,0.036642,-0.014083,-0.056122,0.997651,0
8040,0.45910254,1.2996492,9.168452,0.078099996,0.4192,-0.7452,0.21599999,0.7281,9.7771,-0.10545279,0.09573131,0.09625491,0.036222998,-0.012674,-0.053418,0.997834,0
8080,0.44201753,1.3099731,9.247394,0.36659998,0.70239997,-0.48389998,0.18249999,0.69,9.7806,-0.10075786,0.11962487,-0.020682152,0.034196,-0.010495,-0.052128,0.997999,0
8121,-0.111531496,1.1443996,9.302057,-0.085499994,0.5327,-0.5754,0.1345,0.6538,9.783899,-0.036198128,0.056950092,-0.016632987,0.03266,-0.008122,-0.052594,0.998048,0
8160,0.028395232,1.1778514,9.473923,-0.083399996,0.4858,-0.3117,0.112799995,0.6418,9.7849,0.00816814,0.059917152,0.021659536,0.032435,-0.007203,-0.05249,0.998068,0
8200,-0.086334914,1.1611974,9.597061,-0.22019999,0.5107,-0.2724,0.0927,0.6464,9.7848,0.030997047,0.021624628,0.03621558,0.03283,-0.006309,-0.052038,0.998085,0
8241,-0.005343858,1.2057104,9.733521,0.033099998,0.5437,-0.036,0.0845,0.6624,9.7838,0.11491248,0.021345377,0.01150172,0.033526,-0.006049,-0.051449,0.998094,0
8280,-0.037952885,1.8177737,9.356024,-0.1906,0.9278,-0.4152,0.087299995,0.7202,9.779699,0.05232497,-0.06562438,-0.022235494,0.036472,-0.006335,-0.051236,0.998,0
8320,0.19156486,1.7806252,10.152727,0.1586,1.1712999,0.0663,0.1061,0.7213,9.7795,-0.19200367,0.033580136,-0.13793337,0.035755,-0.007328,-0.052379,0.99796,0
8361,-0.014863204,1.4951023,10.594142,-0.3624,0.82629997,0.87549996,0.0976,0.6544,9.7842,-0.030368729,-0.09021607,-0.07822566,0.032729,-0.00691,-0.054964,0.997927,0
8400,0.73089236,1.219884,10.980393,0.5071,0.8328,0.6688,0.1303,0.63809997,9.7849,-0.1795071,-0.16086699,-0.09150761,0.03155,-0.009186,-0.056609,0.997855,0
8440,0.56382495,1.1108521,11.95152,0.38,0.3445,2.2447,0.17889999,0.5772,9.788,0.083932884,0.005113815,0.015044739,0.028526,-0.010875,-0.05773,0.997865,0
8480,0.1149121,1.3570144,10.304491,0.094299994,0.7797,1.0121,0.19,0.62259996,9.785,0.34786156,-0.11391764,-0.105906576,0.032845,-0.012175,-0.058081,0.997697,0
8520,0.046916775,0.11514194,9.832269,-0.2225,-0.58489996,0.0027,0.2224,0.7456,9.7757,0.097179934,0.024993114,-0.15378097,0.038095,-0.013689,-0.060594,0.997341,0
8561,-0.016836027,-0.19639157,9.921371,-0.2057,-1.0382,0.3579,0.2057,0.793,9.7723,0.18933332,0.13428563,-0.2428102,0.040586,-0.012436,-0.064077,0.997041,0
8600,-0.25668716,0.18253393,9.558486,-0.38819999,-0.7783,-0.1739,0.1417,0.8707,9.7668,0.2984164,0.14679964,-0.1640435,0.045196,-0.00942,-0.068455,0.996585,0
8640,0.092646025,0.6580607,8.515429,-0.082499996,-0.34199998,-1.0479,0.082499996,0.9892,9.7562,0.26270697,-6.98E-04,-0.17175785,0.051686,-0.007581,-0.071352,0.996082,0
8680,0.031708807,-0.001158794,8.8621,0.1086,-0.84849995,-0.92029995,0.0678,1.0839,9.7463,0.053825952,0.14198254,-0.15125023,0.054941,-0.007562,-0.074034,0.995712,0
8720,-0.16028702,0.0500867,8.53664,-0.266,-1.2233,-1.1338,0.0111,1.1056,9.7441,0.010332349,0.022654373,0.02453933,0.056252,-0.004893,-0.076498,0.995469,0
8760,0.46375686,0.68911827,9.08384,0.4534,-0.4386,-0.73289996,-5.00E-04,1.1057999,9.7441,-0.20682152,-0.020141099,0.064751714,0.055759,-0.004627,-0.075773,0.995554,0
8801,0.2856187,0.8058021,10.026438,0.36569998,-0.2174,-0.0054,0.0069,1.0215,9.7532,-0.33571407,0.034749504,0.03415609,0.050334,-0.003879,-0.074585,0.995936,0
8840,0.38040993,0.98336565,10.564875,0.2262,-0.0609,0.8655,-6.00E-04,0.9043,9.7648,-0.006789331,-0.042202063,0.022235494,0.045397,-0.003563,-0.073956,0.996221,0
8880,0.51766473,1.534645,8.980038,0.5584,0.5588,-0.4879,0.0103,0.9023,9.764999,-0.046163958,0.076358154,-0.06443755,0.046115,-0.003754,-0.073902,0.996191,0
8920,-0.0474435,0.8468962,9.284753,0.0638,0.1636,-0.69619995,-0.0246,0.87579995,9.7674,-0.21279055,0.10248573,-0.04309218,0.043651,-0.00137,-0.075311,0.996203,0
8961,0.10951079,0.7714884,9.521529,0.2003,-0.044299997,-0.21229999,-0.0603,0.8042,9.773399,0.015620696,0.030455995,0.015306537,0.04092,0,-0.075536996,0.996302,0
9000,-0.29995516,1.0148925,8.780093,-0.1357,0.1741,-0.9471,-0.070099995,0.80649996,9.7731,-0.07031932,0.040002946,0.10346312,0.04131,4.72E-04,-0.075056,0.996323,0
9040,0.14577815,1.2112075,10.240767,0.0742,0.3691,0.060599998,-0.0742,0.7782,9.7754,0.06283186,-0.03398156,0.19029325,0.039646,7.62E-04,-0.071935,0.99662,0
9080,0.39659473,1.7486578,8.803556,0.3662,0.75079995,-0.45589998,-0.0622,0.8182,9.7722,0.2693043,0.025132742,0.16790067,0.043342,2.72E-04,-0.068012,0.996742,0
9120,0.15091132,1.6223686,9.018632,0.2679,0.8222,-1.0162,-0.062,0.91349995,9.7638,0.08937831,-0.03141593,0.073391095,0.047356,-2.44E-04,-0.065308,0.99674,0
9160,0.19249383,1.6362549,9.123412,0.0839,0.59459996,-0.8368,-0.0545,0.9449,9.760799,-0.10012954,0.035168383,0.10588913,0.048208,-1.22E-04,-0.063504,0.996816,0
9201,0.483849,1.6707602,10.564645,0.296,0.78779995,0.5327,-0.0607,0.9087,9.7642,-0.090844385,-0.06633996,0.036669366,0.045942,1.22E-04,-0.06167,0.997038,0
9240,0.17495868,1.6074574,10.64169,0.26299998,0.756,0.9411,-0.047199998,0.8718,9.7677,-0.19226547,0.072797686,0.002303835,0.044561,-3.22E-04,-0.061421,0.99711597,0
9280,0.11112926,0.8116152,12.243325,0.116399996,0.266,1.9732,-0.0674,0.78319997,9.775,-0.15074408,-0.022113321,0.08107054,0.038788,0.001064,-0.060817,0.997394,0
9320,0.09515515,0.85676986,11.259279,0.34059998,0.0645,2.2352998,-0.066,0.74939996,9.777699,0.3883532,0.0588525,0.10520845,0.039731,0.00132,-0.058818,0.997476,0
9361,-0.4557602,1.0047698,9.147114,-0.19929999,0.096099995,-0.2618,-0.085,0.9041,9.7645,0.31452578,-0.03143338,0.06806784,0.047879,0.001586,-0.056827,0.997234,0
9400,-0.720626,0.8524028,8.985151,-0.70019996,-0.094399996,-0.80109996,-0.074499995,1.0065,9.754499,-0.05338962,0.013927727,0.08939576,0.051827,9.21E-04,-0.055485,0.997113,0
9440,-0.52637005,0.121788256,10.23098,-0.4095,-0.8239,0.37019998,-0.076299995,0.9774,9.7575,-0.2644872,0.11606439,0.14896385,0.048718,0.001519,-0.053388,0.997383,0
9480,-0.73415804,-0.028960263,9.943282,-0.6838,-0.9977,0.6892,-0.1105,0.89959997,9.7646,0.3088709,-0.06742207,0.2725506,0.046744,0.003358,-0.049491,0.997674,0
9520,-0.4595335,0.20272185,7.751793,-0.25059998,-0.8347,-1.4272,-0.0729,1.021,9.752999,0.31388003,-0.13959143,0.2425484,0.054298,4.72E-04,-0.044188,0.997546,0
9560,-0.35641044,0.1519935,7.9075885,-0.575,-0.9723,-2.2992,-0.0133,1.1194,9.742499,-0.26103145,-0.04712389,0.32623693,0.056553,-0.001975,-0.03889,0.997639,0
9600,0.26202142,0.33965102,8.901498,0.071899995,-0.7204,-0.9367,0.025999999,1.0244,9.7529,-0.36697292,-0.1558928,0.18325958,0.050605,-0.003836,-0.033196,0.998159,0
9641,0.5510686,0.3384348,10.195449,0.45099998,-0.5243,-0.049399998,0.0883,0.86759996,9.7677,-0.60379666,0.02029818,0.05651376,0.041292,-0.006144,-0.030614,0.998659,0
9680,0.34803075,0.5679621,10.933697,0.23779999,-0.2135,1.2178999,0.075899996,0.645,9.7851,-0.24158847,0.0956615,0.008412487,0.032777,-0.004855,-0.029864,0.999004,0
9720,0.25895685,1.1231583,9.113223,0.2545,0.48029998,-0.24689999,0.049399998,0.58849996,9.788799,0.12383111,0.019216076,-0.100321524,0.030614,-0.003487,-0.03045,0.999061,0
9760,-0.21956745,0.92529196,9.013308,-0.0665,0.30859998,-0.9895,0.0371,0.63269997,9.786099,-0.0606851,0.12520991,-0.08838347,0.032172,-0.002426,-0.032414,0.998953,0
9800,0.15143804,1.2675382,9.436612,0.0401,0.4953,-0.3338,-0.0107,0.6127,9.787399,-7.50E-04,0.050317843,-0.13723524,0.031097,0,-0.033987,0.998938,0
9841,-0.47701117,1.2197883,9.183382,-0.36249998,0.6258,-0.6484,-0.0346,0.6074,9.7877,-0.15983725,0.032375857,-0.26099652,0.030659,8.54E-04,-0.037849,0.998812,0
9880,-0.6393381,0.74301654,10.274564,-0.6426,0.3813,0.1915,-0.0536,0.54039997,9.7915,-0.240454,0.09567895,-0.11164871,0.026341,0.001983,-0.042056,0.998766,0
9920,-0.71399885,0.20971292,10.101194,-0.4894,-0.1335,0.4033,-0.089099996,0.45709997,9.7955,0.008307767,-0.08600982,-0.056217056,0.023173999,0.003561,-0.043995,0.998756,0
9960,-0.35554853,0.8101404,10.034789,-0.727,-0.0468,0.25599998,-0.0574,0.4587,9.7957,0.0776497,-0.09995501,0.28729865,0.023774,0.001297,-0.043194998,0.998782,0
10000,1.0646824,1.8334988,10.229198,0.9472,1.1773,0.2181,-0.0058,0.48979998,9.7944,0.06085963,-0.17877407,0.15566592,0.025332,-0.001572,-0.037729,0.998965,0
10040,0.7608486,1.9148538,10.616379,0.78459996,1.3189,0.8178,0.0587,0.51489997,9.7929,0.11163126,-0.029600784,0.023317598,0.026525,-0.004345,-0.035798,0.998997,0
10081,0.42902178,1.770244,9.96099,0.6049,1.4174,0.163,0.0717,0.5536,9.7907,-0.11068878,0.04865978,-0.17756979,0.028156,-0.004573,-0.036470998,0.998927,0
10120,-0.30193755,0.5450831,11.495136,-0.3189,0.38149998,1.1309,0.0541,0.501,9.7936,-0.27944466,0.005515241,-0.13936454,0.023915,-0.003583,-0.040262,0.998896,0
10160,-0.47749,0.32303527,11.882691,-0.30269998,-0.1784,2.5095,0.0477,0.4138,9.7977,0.27600637,-0.04124213,0.01160644,0.021382,-0.003322,-0.041994,0.998883,0
10200,0.14098975,0.8690665,10.516685,-0.3757,0.1539,0.8282,0.0815,0.5227,9.7923,0.35393533,-0.20807815,0.06689847,0.028471,-0.006626,-0.041095,0.998727,0
10240,0.4002818,0.9619424,10.334457,0.2619,0.3101,0.5731,0.1458,0.6509,9.783899,0.21177825,0.09557423,-0.12482595,0.033885,-0.008543,-0.040844,0.998554,0
10280,-0.118694946,0.37534377,9.125232,-0.062,-0.24239999,-0.2065,0.111099996,0.74259996,9.7778,0.26761132,0.05518731,-0.30806807,0.03913,-0.006972,-0.044659,0.998211,0
10321,-0.55263925,-0.2703437,9.162065,-0.52779996,-0.8601,-0.6304,0.076699995,0.8405,9.7702,0.15723671,0.19333012,-0.24354324,0.043447,-0.005365,-0.050588,0.997759,0
10360,-0.80085087,-0.57754844,8.531681,-0.75339997,-1.5105,-0.98709995,-0.0016,0.9123,9.7641,0.3662748,0.10035643,-0.105574965,0.046505,-0.002416,-0.053645,0.997473,0
10400,-0.06799533,-0.37774757,7.764262,-0.2775,-1.469,-1.9835999,-0.036199998,1.0473,9.7504,0.12520991,0.12847368,0.027262043,0.053497,-0.001118,-0.055376,0.99703,0
10440,0.08082825,0.15578592,8.5675745,0.085999995,-1.0891,-1.3707,-0.085999995,1.0891,9.7455,-0.11400491,0.23790583,0.08569567,0.055404,0.002435,-0.054182,0.996989,0
10480,-0.013330915,0.4847205,8.24702,0.067499995,-0.6964,-1.3837999,-0.1655,1.0494,9.748899,-0.1577603,-0.024417156,0.03551745,0.053486,0.005958,-0.052497,0.997169,0
10520,-0.026048914,0.38927805,9.576711,0.34739998,-0.45889997,-0.75479996,-0.1611,0.96889997,9.757299,-0.5146452,0.089517936,-0.012077678,0.047584,0.005821,-0.052295,0.99748,0
10561,-0.011166557,0.42540178,10.053329,-0.0025,-0.44619998,0.27809998,-0.1936,0.77959996,9.7736,-0.29028317,0.006300638,0.08742354,0.038289,0.008237,-0.051334,0.997913,0
10600,-0.25727132,0.754365,9.577133,-0.0044,-0.025999999,-0.1122,-0.1916,0.67329997,9.7816,-0.12857841,-0.08100073,0.08115781,0.034123998,0.007679,-0.049924,0.99814,0
10640,0.22110932,1.1063989,9.527544,0.3547,0.47619998,-0.3038,-0.16239999,0.6202,9.7856,-0.23315853,0.004328417,0.12636183,0.031086,0.006614,-0.047735,0.998354,0
10680,0.36805585,1.0478847,10.183612,0.4806,0.5268,0.19219999,-0.15699999,0.5322,9.790899,-0.19739674,-0.018203784,0.07936012,0.026343,0.006637,-0.045527,0.998593,0
10720,0.5926224,1.160029,10.453984,0.66889995,0.5886,0.57089996,-0.14909999,0.4606,9.7946,0.001797689,0.060737457,0.12077679,0.023378,0.006684,-0.043589998,0.998753,0
10760,0.4017949,1.1945151,9.449751,0.7872,0.7087,0.1016,-0.15959999,0.4876,9.7932,0.33049554,-0.064175755,0.018430676,0.02573,0.006985,-0.041772,0.998771,0
10800,-0.12875059,1.0394953,8.829605,0.059899997,0.48589998,-1.0205,-0.1384,0.59279996,9.7877,0.17627825,-0.015376351,0.078661986,0.03178,0.005444,-0.041271,0.998627,0
10841,-0.06940312,1.1052209,9.427121,0.0274,0.4014,-0.5555,-0.1353,0.6576,9.7836,0.064001225,0.001954769,0.106482536,0.034114,0.005774,-0.039239,0.99863,0
10880,-0.055334788,1.2538817,10.444169,0.0889,0.5197,0.6635,-0.12709999,0.6892,9.7815,0.21664771,-0.038781215,0.10857693,0.036222,0.004686,-0.037404,0.998632,0
10920,-0.3060939,1.5249629,10.1854515,-0.0804,0.6719,0.3741,-0.1156,0.7696,9.7757,0.16236798,0.09979793,0.16971582,0.040385,0.004846,-0.034719,0.998569,0
10960,-0.28913337,1.7544806,9.907658,-0.1406,0.88,0.3015,-0.1437,0.83599997,9.7698,0.1221905,0.042900193,0.12688543,0.04367,0.006187,-0.031433,0.998532,0
11000,-0.50490844,1.4161224,10.418818,-0.177,0.6933,0.4032,-0.1563,0.8757,9.7662,-0.05084144,0.077178456,0.051958453,0.044823,0.006953,-0.02939,0.998538,0
11040,-0.13925634,0.87961054,11.037702,0.0412,0.0267,1.2254,-0.1725,0.8601,9.7673,-0.026720991,-0.026441738,-1.22E-04,0.043906,0.007359,-0.028539,0.9986,0
11081,-0.2100098,0.44761997,11.187836,-0.067499995,-0.3364,1.5490999,-0.1677,0.8562,9.7677,0.17441075,0.105906576,0.07579965,0.044412,0.007653,-0.028237,0.998584,0
11120,-0.4369801,0.64449036,9.837794,-0.0672,-0.3897,0.4876,-0.20729999,0.92899996,9.7603,0.33265975,0.13812536,0.1489813,0.049252998,0.010009,-0.026047999,0.998396,0
11160,-0.94132346,0.6064513,8.657079,-0.634,-0.4423,-0.79249996,-0.24849999,1.0601,9.745999,0.2700897,-0.006789331,0.22589797,0.056072,0.011487,-0.02258,0.998105,0
11200,-0.16930836,-0.15680106,8.7607,-0.1871,-0.97709996,-1.2039,-0.23449999,1.1537,9.7357,-0.08402015,-0.017680185,0.19551179,0.05921,0.010638,-0.017957,0.998027,0
11240,-0.96099424,-1.1993706,9.34343,-0.67859995,-2.2482998,-0.33429998,-0.2137,1.1304,9.7389,0.017418386,-0.12960815,0.2639636,0.057894,0.010038,-0.015186,0.998156,0
11280,0.5528691,0.6290813,8.712978,0.3701,-1.1105,-0.76379997,-0.1348,1.1595,9.736899,0.11431906,-0.089343406,0.40456733,0.059843,0.005817,-0.006299,0.998171,0
11321,0.7038187,1.3900352,8.260447,0.9267,0.2059,-1.5924,-0.0637,1.2062,9.7319,-0.07407177,-0.20556487,-0.020176006,0.061928,0.001655,-0.00105,0.998078,0
11360,-0.20444568,1.0168654,9.032184,-0.3689,-0.0986,-1.1082,-0.0037,1.1577,9.738,-0.5006826,-0.013281955,-0.044331364,0.059134,0,-0.001914,0.998248,0
11400,0.86982304,0.75881827,10.654743,0.96269995,-0.108399995,0.59639996,-0.0016,0.96159995,9.759299,-0.39927897,0.074281216,-0.3066369,0.046617,0,-0.004488,0.998902,0
11440,-0.27676013,0.85134935,9.531671,-0.023699999,-0.090399995,0.2008,-0.0448,0.816,9.7725,-0.122539565,0.11840314,-0.30806807,0.040788,0.002791,-0.011078,0.999102,0
11481,0.10588117,1.2126153,9.071831,0.1943,0.3931,-0.8228,-0.0962,0.764,9.776299,-0.15861551,-0.047315877,-0.3464304,0.038429,0.00436,-0.016962,0.999107,0
11520,0.09661082,1.1128154,9.405267,0.15529999,0.4698,-0.5798,-0.096499994,0.7363,9.778399,-0.20949186,-0.027803095,-0.39451423,0.036725,0.004022,-0.020485999,0.999107,0
11560,-0.3540641,0.56679374,9.663371,-0.329,-0.0199,-0.17639999,-0.121999994,0.6083,9.787,-0.19622737,0.06435029,-0.24439846,0.031202,0.005311,-0.029431,0.999065,0
11600,0.07060979,0.7947026,9.854466,0.113699995,0.2462,0.1138,-0.1431,0.53819996,9.7908,0.014503686,-0.09328785,-0.21821852,0.027435,0.006105,-0.035618998,0.99897,0
11641,0.4758428,1.308144,9.279762,0.6717,0.58129996,-0.25849998,-0.1226,0.5463,9.7906,0.119555056,0.02295108,-0.22207569,0.028601,0.00526,-0.039494,0.998796,0
11680,0.02444001,1.0724299,9.148484,0.2409,0.6003,-0.7362,-0.12329999,0.59599996,9.7877,0.22568853,-0.15660839,-0.3166551,0.031564,0.004303,-0.044699,0.998492,0
11720,-0.2727283,0.8443871,8.787649,-0.0805,0.0975,-0.8287,-0.076299995,0.68689996,9.7822,0.19387117,-0.0564614,-0.24085544,0.036465,0.001704,-0.050707,0.998046,0
11760,-0.42424294,1.060842,9.921562,-0.3461,0.3021,-0.1372,-0.0559,0.75689995,9.7772,0.13727015,-0.074141584,-0.17407914,0.039247,3.45E-04,-0.055079,0.99771,0
11800,-0.43952757,1.1330416,9.6917,-0.35619998,0.28919998,-0.14299999,-0.036,0.8091,9.7731,7.16E-04,-0.003054326,-0.12527974,0.041326,-5.45E-04,-0.057696,0.997478,0
11841,-0.028328193,1.720502,10.9921055,-0.24159999,0.71529996,1.2106999,-0.032899998,0.81439996,9.772699,-0.013526302,-0.03139847,-0.04740314,0.041477,-0.00105,-0.060291998,0.99731797,0
11880,0.077466786,1.8898296,11.526242,0.20969999,1.1462,1.406,-0.0233,0.8052,9.7734995,-3.14E-04,0.003071779,-0.11234684,0.040863,-0.001331,-0.061792,0.997251,0
11920,-0.21788193,1.639013,11.113664,-0.049599998,0.895,1.6524999,-0.0288,0.8211,9.7720995,0.34372514,0.003979351,-0.050178215,0.043136,-0.001132,-0.063564,0.997044,0
11960,0.015140931,1.2654601,9.960903,0.0817,0.4662,0.3703,-0.0327,0.9557,9.7599,0.35712928,0.06558947,-0.15535176,0.050757,-0.001469,-0.06494,0.996596,0
12000,-0.8976245,0.8026609,9.253618,-0.41509998,-0.1908,-0.2622,-0.0654,1.0929999,9.745299,0.20127137,0.15812683,-0.2573837,0.057352,0,-0.068899,0.995973,0
12040,-0.6722823,0.5451023,9.871303,-0.7331,-0.51159996,-0.5884,-0.1396,1.1489999,9.738,-0.268292,0.22329742,-0.20205677,0.058277998,0.004037,-0.073184,0.995606,0
12081,-1.188702,0.16361976,10.897027,-0.5029,-0.74759996,1.4433,-0.24229999,1.0615,9.745999,0.21525146,0.2550624,-0.15800466,0.05496,0.009699,-0.076903,0.995475,0
12120,-0.7793318,0.17254533,8.005674,-0.7037,-1.0315,-1.1423,-0.3455,1.1492,9.7329,0.32929125,0.22985986,0.10192723,0.062033,0.013977,-0.077913,0.99492997,0
12160,0.02809835,0.47890738,8.2678385,0.1504,-0.844,-1.9582,-0.42499998,1.2657,9.7153,-0.04096288,0.048537605,0.22284363,0.066351,0.017126,-0.074744,0.994845,0
12201,0.9223135,0.7300975,8.566012,1.0517,-0.6489,-1.1057999,-0.43379998,1.2569,9.716,-0.12751375,-0.059655353,0.16727236,0.065283,0.017448,-0.070127,0.995246,0
12240,0.38254556,0.8355189,9.404463,0.9677,-0.41869998,-0.6041,-0.3989,1.2032,9.724299,-0.27309167,-0.15311773,0.04967207,0.062729,0.016131,-0.068218,0.995565,0
12280,-0.20091183,1.0814321,9.898578,0.28399998,-0.0835,0.0279,-0.3428,1.0935999,9.7394,-0.30604348,-0.07255334,0.052342422,0.055295,0.013392,-0.06715,0.996119,0
12320,-0.3495343,1.0916793,10.037021,0.1147,0.1161,0.35819998,-0.3108,0.98219997,9.752299,-0.11304498,-0.083932884,0.025132742,0.050165,0.012114,-0.066178,0.996472,0
12360,-0.5165538,1.2373905,9.25157,-0.27879998,0.23789999,-0.2941,-0.28,0.9388,9.7575,-0.07307693,-0.046303585,0.06112143,0.048765,0.011111,-0.065759,0.996581,0
12401,0.07535032,1.1421204,9.574241,0.24059999,0.3014,-0.3665,-0.2602,0.9047,9.7613,-0.17432348,0.034016468,0.037978366,0.046177,0.010253,-0.064354,0.996805,0
12440,-0.16505626,1.0587543,9.800253,0.2706,0.20899999,0.0793,-0.28039998,0.8402,9.7664995,-0.030874874,0.07204719,0.050858893,0.043176,0.012199,-0.063495,0.996973,0
12480,0.16159904,1.5153382,9.042287,0.247,0.4508,-0.53819996,-0.3058,0.8337,9.7663,0.060580377,0.034121186,0.12023573,0.043847,0.013007,-0.061877,0.997035,0
12520,0.39711186,1.8793238,9.180231,0.7721,0.93829995,-0.644,-0.3112,0.8562,9.7642,-0.023422318,0.03452261,0.014189526,0.044619,0.013293,-0.060025,0.99711,0
12560,-0.026039338,1.5671871,10.128574,0.3076,0.7184,0.31579998,-0.31829998,0.84559995,9.7649,-0.02310816,-0.020472713,-0.038728856,0.043814998,0.013577,-0.060434,0.997117,0
12600,0.08991664,1.5106742,10.299176,0.5541,0.7186,0.70809996,-0.3187,0.84059995,9.7653,0.09414306,0.12313298,-0.037384953,0.044165,0.014022,-0.060964,0.997063,0
12641,-0.5655679,1.4594287,10.182492,-0.0734,0.54539996,0.20269999,-0.35799998,0.87649995,9.760799,0.10819296,0.045256387,0.041922808,0.046335,0.015746,-0.061476998,0.996908,0
12680,-0.65257317,1.5832376,10.059612,-0.106,0.6031,0.6202,-0.38419998,0.9266,9.755199,0.27640778,0.06773623,0.11630874,0.049591,0.017186,-0.059675,0.996837,0
12720,-1.0502118,1.405224,9.727823,-0.5873,0.41329998,-0.271,-0.403,1.0282,9.7442,0.11302752,-0.090024084,0.16360717,0.053615,0.017503,-0.05793,0.996726,0
12760,-0.32915485,1.4411179,10.577966,-0.27519998,0.2286,0.9593,-0.3452,1.1033,9.7382,0.23284437,-0.15639895,0.22230259,0.057216,0.014586,-0.053559,0.996817,0
12801,0.43492112,1.505407,9.402816,0.6935,0.4261,-0.2391,-0.2914,1.1723,9.7319,0.00572468,-0.19086921,0.007225663,0.060566,0.011817,-0.050859,0.996797,0
12840,-0.5984163,0.018224662,10.669443,-0.35909998,-1.1273999,0.9209,-0.2298,1.1517,9.736,-0.1966637,0.051591933,0.066968285,0.058107,0.00875,-0.05108,0.996964,0
12880,-0.8272446,-0.14943649,9.825545,-0.3979,-1.2774,0.46589997,-0.2394,1.0911,9.7428,0.21135937,-0.05958554,0.14723597,0.056752,0.009441,-0.048953,0.997142,0
12920,-0.62822896,0.13183431,9.075308,-0.5542,-1.147,-0.46949998,-0.22039999,1.147,9.7368,0.3299894,-0.1964019,0.16554448,0.059056,0.008459,-0.0475,0.997088,0
12960,-0.29304072,0.074114904,8.811352,-0.1785,-1.1546,-1.0044,-0.14289999,1.2724,9.7226,-0.080878556,0.16926204,0.22479841,0.065288,0.005125,-0.042672,0.99694,0
13000,0.24535778,0.8128985,9.0417795,0.22489999,-0.6807,-0.46629998,-0.1759,1.2593,9.7238,0.08625417,-0.07747517,0.11746066,0.064648,0.006447,-0.039311,0.997112,0
13041,0.095902145,1.3157958,8.841068,0.2852,0.051099997,-1.1809,-0.1427,1.2572,9.7246,-0.2727775,-0.028605945,-0.0909142,0.064466,0.004849,-0.037901,0.997188,0
13080,-0.024353819,1.0482103,9.934079,0.14299999,-0.0254,-0.1945,-0.14299999,1.163,9.7362995,-0.40379938,-0.015515977,-0.13924237,0.057636,0.005025,-0.040083,0.99751997,0
13120,-0.09182242,0.8001422,10.825727,0.063599996,-0.188,0.9163,-0.14199999,1.0117999,9.7532,-0.19404571,0.008848819,-0.07904596,0.050466,0.005087,-0.042625,0.997802,0
13160,0.12030385,1.101802,9.729901,0.2193,-0.038799997,0.5965,-0.1506,0.9508,9.7592,0.18835594,0.064489916,-0.061714843,0.049368,0.005847,-0.043733,0.997805,0
13200,-0.15057613,1.594299,7.9764647,0.16849999,0.46409997,-1.4556999,-0.1783,1.0166,9.7521,0.047438048,0.035133477,-0.14557791,0.052265,0.00676,-0.044929,0.997599,0
13241,0.14672625,1.5067765,8.731127,0.1942,0.5668,-1.4451,-0.1942,1.0217999,9.7513,-0.25176373,-0.03291691,-0.17870426,0.052585,0.007406,-0.047808,0.997443,0
13280,-0.27720067,1.0402231,9.728992,0.12459999,0.1533,-0.0131,-0.19319999,0.92539996,9.7609,-0.16123351,0.038048178,-0.21186551,0.046631,0.007589,-0.052763,0.997488,0
13320,-0.64745915,1.0494266,9.845236,-0.1909,0.24329999,-0.12619999,-0.2111,0.86469996,9.7661,0.024556782,-0.104021624,-0.20289452,0.044392,0.00814,-0.056877,0.99736,0
13360,-0.4010575,1.581715,9.585656,-0.417,0.38889998,-0.037499998,-0.1811,0.8761,9.765699,0.072151914,0.002897247,-0.06161012,0.045687,0.006276,-0.06012,0.99712497,0
13400,-0.2180256,2.0601914,9.997046,0.1419,1.1410999,-0.094299994,-0.1811,0.8986,9.7637,-0.008813913,-0.05787512,-0.1669931,0.046278,0.006306,-0.061722,0.997,0
13440,-0.6732591,2.1483939,10.51156,-0.48349997,1.1721,0.6897,-0.1637,0.89699996,9.7641,0.030997047,0.008831366,-0.12128293,0.046331,0.005089,-0.065183,0.996784,0
13481,-0.68053746,2.4020736,10.375216,-0.55619997,1.4386,0.7299,-0.1792,0.9051,9.7631,0.070842914,0.06553711,-0.06091199,0.046877,0.006712,-0.066921,0.996633,0
13520,-0.54292834,1.9310577,10.591757,-0.1523,1.235,0.73289996,-0.2006,0.93219995,9.760099,0.082047924,0.04939282,-0.0959233,0.04866,0.006994,-0.068594,0.996432,0
13560,-0.3016694,1.4184113,10.662453,-0.3803,0.5196,0.9726,-0.2276,0.9709,9.755799,0.23244295,0.034592427,0.05284857,0.050952,0.00841,-0.069317,0.996257,0
13600,0.034304123,1.3527335,9.908652,0.4006,0.3432,0.5017,-0.2437,1.0591,9.7462,0.28885198,0.035691984,-0.07422885,0.056348,0.008835,-0.068848,0.995995,0
13641,-0.5221275,0.42923248,9.317725,-0.1113,-0.4111,-0.6243,-0.2613,1.1564,9.7347,-0.101124376,0.15465362,-0.19833921,0.060074,0.009505,-0.071394,0.995592,0
13680,-1.47298,-0.69220203,10.012963,-0.78929996,-1.5766,0.2951,-0.3384,1.1157,9.7369995,-0.066881016,0.26778588,-0.16838937,0.058114,0.013002,-0.074219,0.995462,0
13720,-1.29624,-0.40752184,9.258416,-1.2014999,-1.754,-0.27989998,-0.4263,1.1165999,9.7335,0.28759536,0.059306286,0.11170107,0.059671,0.017761,-0.075753,0.995181,0
13761,-0.36004964,0.08103894,8.336093,0.071899995,-1.2056,-1.3704,-0.4448,1.2393999,9.7178,0.11721631,0.07164577,0.077003926,0.065618,0.017928,-0.073594,0.994965,0
13800,-0.06343677,0.045212105,9.122426,0.3139,-1.1717,-0.89769995,-0.47079998,1.26,9.7139,-0.2797588,0.1884432,0.12250466,0.065044,0.02016,-0.071841,0.995088,0
13840,0.6192842,0.40233123,9.965884,1.0739,-0.88839996,0.014,-0.5345,1.1532,9.7239,-0.32122785,0.07588691,0.0596379,0.05904,0.023914,-0.069012,0.99558,0
13880,0.16072756,0.67362297,10.315534,0.745,-0.5361,0.6495,-0.5586,1.0361999,9.7357,-0.16439256,0.054436818,0.08051204,0.053737,0.024992,-0.067753,0.99593997,0
13920,-0.38804263,1.1269795,9.425627,0.4675,0.0919,-0.0323,-0.5753,0.9769,9.7408,-0.01691224,-0.04139921,0.048781954,0.051444,0.026147,-0.066188,0.996137,0
13961,-0.28879818,1.0140977,9.071544,0.10349999,0.0422,-0.6522,-0.5546,0.96779996,9.743,-0.07318166,-0.027960174,0.09667379,0.050967,0.024597,-0.06503,0.996277,0
14000,-0.40193856,1.0724013,8.862818,0.303,0.0999,-0.7147,-0.5384,0.9395,9.7466,-0.15882497,0.058014743,0.05311037,0.049028,0.024572,-0.063342,0.99648297,0
14040,-0.14685075,1.0397347,9.329811,0.27609998,0.23369999,-0.7005,-0.5507,0.8743,9.752,-0.29277897,-0.020245818,-0.017174039,0.045057,0.025195,-0.062341,0.996718,0
14080,-0.8332301,0.6305465,10.20969,-0.115899995,-0.106,0.0535,-0.5509,0.7434,9.7628,-0.36678094,0.1394169,0.031503193,0.038509,0.026055,-0.062713,0.996947,0
14120,-0.5535682,0.75012255,10.451074,-0.0543,0.072,0.6563,-0.5929,0.634,9.7681,0.026633725,-0.06140068,0.099239424,0.033688,0.028312,-0.06107,0.997162,0
14160,-0.42193496,1.0548278,9.536249,0.21939999,0.3126,-0.0696,-0.5724,0.6484,9.7684,0.085573494,0.02846632,0.10445795,0.035359,0.027021,-0.05919,0.997254,0
14201,-0.097386554,1.2643683,9.292892,0.4784,0.552,-0.4678,-0.58129996,0.685,9.7654,0.08035496,0.020751964,0.084665924,0.037036,0.027862,-0.056867998,0.997305,0
14240,-0.15515386,1.1938447,9.365887,0.47439998,0.4705,-0.4369,-0.5823,0.71599996,9.7631,0.018535396,-0.034958944,-0.006771877,0.038162,0.027622,-0.056126,0.997311,0
14280,-0.267078,1.2041973,9.418588,0.29729998,0.4827,-0.2704,-0.58169997,0.7136,9.7633,-0.021519909,-0.02984513,0.027628561,0.037922,0.027733,-0.055739,0.997339,0
14320,-0.67177474,1.2117916,10.009727,0.188,0.5621,0.012399999,-0.57049996,0.7029,9.7647,-0.059236474,0.002513274,0.056950092,0.037157,0.026946,-0.055227,0.997418,0
14360,-0.7646793,1.2174803,10.20563,-0.25689998,0.45029998,0.52099997,-0.5668,0.6872,9.7661,0.04251622,0.037227873,0.22291344,0.036691,0.027042,-0.052841,0.997562,0
14400,-0.9174868,1.3795485,10.4404335,-0.2391,0.63229996,0.64089996,-0.5748,0.7111,9.7639,0.16844173,0.036233034,0.2735629,0.03834,0.027683,-0.048027,0.997725,0
14441,-0.7836031,1.3264452,10.05785,-0.195,0.6386,0.2642,-0.5797,0.78319997,9.7581,0.1502903,0.022706734,0.24284512,0.04221,0.027825,-0.042639,0.99781,0
14480,-1.1411723,0.8440136,10.928287,-0.382,0.038599998,1.2214,-0.579,0.8537,9.7522,0.3758043,0.021066124,0.24745278,0.046037998,0.027763,-0.038053,0.997828,0
14520,-0.65689236,1.2965847,9.014581,-0.24329999,0.221,-0.3822,-0.5803,1.0047,9.7376995,0.33635986,0.046163958,0.27014205,0.052306,0.027863,-0.034282,0.997653,0
14561,-0.27068844,1.1414596,9.242098,0.20179999,0.1997,-0.76449996,-0.58419997,1.0946,9.727799,0.0347146,-0.017558012,0.16203637,0.056813,0.028126,-0.03052,0.997521,0
14600,-0.24951413,0.26851448,10.331632,0.4201,-0.7362,0.55009997,-0.5672,1.1089,9.7272,0.061767202,0.00286234,0.075764745,0.057429,0.02741,-0.027429,0.997596,0
14640,-0.068024054,0.3101736,9.889796,0.5319,-0.8376,0.2386,-0.5614,1.1317999,9.724899,0.06627015,-0.008203047,0.034592427,0.058956,0.027137,-0.025629,0.997562,0
14680,-0.53774726,0.27196217,9.549628,0.0744,-0.90739995,-0.071899995,-0.5549,1.1623,9.7216,0.10951941,-0.064647,0.05572836,0.060547,0.026586,-0.02506,0.997496,0
14720,-0.26386976,0.5047552,8.838301,0.082499996,-0.886,-0.50909996,-0.5237,1.2097,9.7176,0.108542025,-0.07199483,0.07995354,0.062447,0.025265,-0.024109,0.997437,0
14760,-0.44011173,0.7001316,8.897467,0.1692,-0.5581,-0.9869,-0.4928,1.2445999,9.7148,0.002076942,-0.13447762,-0.001204277,0.064172,0.023228,-0.022854,0.997406,0
14801,0.06953719,0.96359915,8.464977,0.1776,-0.42749998,-0.9693,-0.43249997,1.2512,9.7168,-0.036023594,-0.23445007,-0.12732176,0.06461,0.019366,-0.023672,0.997441,0
14840,-0.2902826,0.803111,9.484899,0.15349999,-0.3347,-0.6925,-0.3496,1.2172999,9.7245,-0.35615188,-0.14414674,-0.23453735,0.06109,0.015361,-0.027554,0.997633,0
14880,-0.24028209,0.952672,9.825008,0.075899996,-0.1196,0.060099997,-0.3069,1.0781,9.7423,-0.3533768,-0.080302596,-0.2552544,0.05365,0.01367,-0.032278,0.997944,0
14920,-0.45006204,0.9805405,10.2253,-0.15789999,0.0099,0.471,-0.28329998,0.94119996,9.757199,-0.18512708,-0.09245009,-0.20373228,0.047242,0.012371,-0.037231,0.998112,0
14960,-0.43392512,1.3138709,9.402097,-0.1319,0.34,-0.0954,-0.26029998,0.86609995,9.7648,-0.097354464,0.013055063,-0.13644984,0.044279,0.011495,-0.04078,0.99812,0
15001,-0.27197173,1.4265803,8.982173,-0.1284,0.6125,-0.7949,-0.2638,0.829,9.7678995,-0.095783666,-0.11690215,-0.14985397,0.042366,0.011348,-0.043442,0.998092,0
15040,-0.06666415,1.1041771,9.5747385,0.1567,0.43789998,-0.3971,-0.2253,0.78779995,9.7723,-0.13269739,-0.061837014,-0.19959585,0.040038,0.009187,-0.046975,0.998051,0
15080,-0.10334332,1.118322,9.782718,0.13239999,0.3112,0.0889,-0.21079999,0.738,9.7765,-0.022444934,0.020594886,-0.19816469,0.03778,0.009011,-0.050799,0.997953,0
15120,-0.25014618,1.272231,9.562078,0.028299998,0.5355,-0.2443,-0.21779999,0.73249996,9.7768,0.073059484,-0.031712633,-0.27193975,0.038274,0.008852,-0.055248998,0.997699,0
15160,-0.7574871,1.256841,9.811267,-0.4684,0.4696,-0.1252,-0.218,0.7561,9.775,0.017488198,0.079813905,-0.20003219,0.039341,0.009018,-0.060311,0.997363,0
15201,-1.1781197,1.3683916,9.912684,-0.8075,0.5319,0.072399996,-0.2613,0.7625,9.773399,0.08777261,0.09581858,-0.06026622,0.039903,0.011654,-0.063307,0.997127,0
15240,-0.6212379,1.4713998,10.054584,-0.524,0.6356,0.361,-0.2899,0.8059,9.7691,0.26150268,-0.018867008,0.045605455,0.04199,0.01214,-0.06376,0.997007,0
15280,-0.5780465,1.6364655,9.82113,-0.2692,0.7044,0.0481,-0.29189998,0.90389997,9.7605,0.1767495,0.12372639,0.16018632,0.048,0.012333,-0.061992,0.996845,0
15320,-0.08874827,1.9151314,9.657961,-0.1151,0.83419997,-0.014099999,-0.3261,0.9799,9.7521,0.21793926,-0.0866905,0.124930665,0.05208,0.01351,-0.058543,0.996833,0
15360,0.14182293,1.7054856,10.148676,0.6361,0.889,0.0512,-0.2929,1.0526,9.7455,-0.101700336,-0.046984263,-0.09850638,0.054515,0.011372,-0.057952,0.996764,0
15400,-0.1860199,1.4642555,11.23708,-0.0275,0.3597,1.4099,-0.2862,1.0131,9.7499,-0.053354714,0.07033677,-0.003438299,0.051871,0.011983,-0.059251,0.996822,0
15441,-0.20106506,1.594749,10.594706,0.25079998,0.6719,1.1446999,-0.29979998,1.005,9.7504,0.13599606,-0.07168067,-0.10372492,0.052857,0.011638,-0.059996,0.99672997,0
15480,-1.1913356,0.70956475,10.464548,-0.6825,-0.0411,0.6285,-0.2882,1.0414,9.7469,-0.043650683,0.18219492,0.027506389,0.05377,0.012102,-0.061567,0.99658,0
15520,-0.7962061,0.1821796,10.193323,-0.5771,-0.7935,0.5908,-0.34469998,1.0387,9.745299,0.27780405,0.015707964,0.062360615,0.054855,0.014626,-0.060207,0.99657,0
15560,-0.95941406,0.20324856,8.902696,-0.574,-1.027,-0.3766,-0.3477,1.1545,9.7322,0.42275366,0.045081854,0.1147554,0.062101,0.014085,-0.059057,0.996221,0
15600,0.24146004,0.81602055,8.02069,0.2417,-0.7151,-1.6211,-0.3594,1.3133,9.711599,0.20509364,0.06949901,0.09777334,0.06955,0.014729,-0.056216,0.995884,0
15641,0.2455589,0.76682454,8.23093,0.81259996,-0.52279997,-1.6592,-0.3811,1.3858,9.7007,-0.08265879,0.026162485,-0.13137093,0.07184,0.015727,-0.055898,0.995724,0
15680,0.018665198,0.5290324,8.995207,0.39119998,-0.8007,-0.88879997,-0.401,1.3499,9.705,-0.1977458,0.019181168,-0.13721779,0.069152,0.016662,-0.058502,0.995749,0
15720,-0.16816874,0.7615094,9.171803,0.2794,-0.6209,-0.6148,-0.41669998,1.2681,9.7153,-0.28876472,0.017278759,-0.120741874,0.065981,0.017331,-0.060438,0.995838,0
15760,-0.15726075,0.8244385,9.651735,0.2512,-0.31919998,-0.305,-0.42769998,1.1527,9.729199,-0.40261254,-0.021502456,-0.16060519,0.058297,0.018245,-0.06355,0.996107,0
15800,-0.58717316,0.51544285,10.71636,-0.17189999,-0.445,0.73649997,-0.4262,0.9942,9.746799,-0.32635912,0.025080381,-0.09606292,0.050138,0.018425,-0.066592,0.996349,0
15840,-0.41004056,0.9358264,9.988677,-0.1251,-0.14209999,0.5887,-0.4436,0.87759995,9.757199,-0.030490901,0.10194468,-0.00143117,0.045734,0.020119,-0.067471,0.996469,0
15881,-0.4994975,1.2683045,8.627908,-0.0099,0.3083,-0.8028,-0.48029998,0.8684,9.7562,0.031555552,0.049916416,-0.005061455,0.046172,0.021765,-0.067525,0.99641,0
15920,-0.18492815,1.4609323,8.609588,0.2234,0.57739997,-1.2721,-0.498,0.8739,9.7549,-0.13137093,0.055710908,-0.035866518,0.045839,0.022523,-0.067613,0.996403,0
15960,-0.43762177,1.2568887,9.172244,0.115399994,0.48529997,-0.76589996,-0.5175,0.8189,9.758599,-0.21586232,0.029304078,-0.09384635,0.042506,0.023749,-0.068724,0.996446,0
16000,-0.5839362,1.0384706,9.892171,-0.043899998,0.3471,-0.17369999,-0.53459996,0.73149997,9.7646,-0.21303488,0.048275806,-0.046635196,0.039159,0.024606999,-0.069985,0.996475,0
16040,-0.82631564,0.9274371,10.07979,-0.17979999,0.2154,0.45949998,-0.5556,0.6573,9.7688,0.017645279,0.0736878,0.07913323,0.035341,0.0261,-0.070532,0.996541,0
16080,-0.3964798,1.3678937,9.696134,0.0356,0.6077,-0.096999995,-0.5848,0.6671,9.766399,0.11761774,0.008011062,0.17158332,0.036458,0.027811,-0.067928,0.996635,0
16121,-0.50440085,1.5328541,9.61498,0.1313,0.7614,-0.1016,-0.57919997,0.7248,9.7626,0.21525146,0.009040806,0.17210692,0.04004,0.026684,-0.064889,0.996731,0
16160,-0.36568078,1.7825407,9.969226,0.2643,1.0026,-0.1952,-0.57809997,0.8017,9.7567,0.06138323,0.06553711,0.20916025,0.043042,0.027204,-0.060885,0.996845,0
16200,-0.7240353,1.5553691,10.186083,-0.0288,0.6982,0.5442,-0.58889997,0.84129995,9.7527,0.22952825,-0.03530801,0.22403046,0.045691,0.02727,-0.056895,0.996961,0
16240,-0.08616253,1.852212,10.090727,0.1718,0.85819995,0.23719999,-0.5739,0.92649996,9.7458,0.086236715,-0.04166101,0.28094566,0.048807,0.026745,-0.053184,0.997032,0
16281,-0.30657277,1.2275934,10.934645,0.7387,0.5056,1.2002,-0.5426,0.96529996,9.743899,0.07037167,0.08922123,0.050195668,0.050847,0.025199,-0.048221,0.997223,0
16320,-0.74921274,0.99154425,10.1547,-0.32569999,0.0341,0.5476,-0.56659997,0.99549997,9.7395,0.12116075,-0.04605924,0.0591143,0.052732,0.026646,-0.046946,0.997148,0
16360,-0.35434186,0.8109832,10.1992035,0.107599996,-0.2127,0.42389998,-0.5391,1.0462999,9.7357,0.100059725,-0.12966052,0.04108505,0.054662,0.025034,-0.046177,0.997122,0
16400,-0.23942974,0.5872977,10.284925,0.2703,-0.42249998,0.4748,-0.5056,1.0795,9.7339,0.14215706,-0.13315117,0.003787365,0.056687,0.022933,-0.045494,0.997091,0
16440,-0.056225434,0.5845204,9.512077,0.43719998,-0.5809,0.106599994,-0.4569,1.1399,9.7294,0.17898351,-0.08388052,-0.041067597,0.060274,0.019915,-0.045994,0.996922,0
16480,0.066740766,0.6526977,9.335797,0.42589998,-0.5703,-0.5448,-0.42589998,1.1978999,9.7238,0.017278759,-0.03413864,-0.078487456,0.062258,0.018719,-0.047027,0.996775,0
16520,-0.08339483,0.74334216,8.72631,0.3527,-0.4928,-0.9539,-0.4114,1.2152,9.7223,0.15042993,-0.14819591,-0.1656492,0.063699,0.017413,-0.04917,0.996605,0
16561,-0.6788328,0.8769003,8.117971,-0.2631,-0.43969998,-1.5001,-0.3645,1.2635,9.717999,-0.023352506,-0.19317304,-0.19235274,0.065638,0.014527,-0.052986,0.996329,0
16600,-0.2784744,0.7562517,9.181917,0.0475,-0.4077,-1.1424999,-0.2927,1.2413,9.7233,-0.33965853,-0.23186699,-0.26427776,0.062815,0.010131,-0.057524,0.996314,0
16640,-0.08277234,0.45648807,10.724224,0.060799997,-0.5815,0.7912,-0.21769999,1.111,9.741,-0.23458971,-0.052674036,-0.2359336,0.055725,0.007129,-0.062899,0.996437,0
16681,-0.061521407,0.7001412,10.072244,0.14,-0.3529,0.4585,-0.2086,1.0295,9.750199,-0.004642576,0.022026055,-0.21099286,0.053161,0.007145,-0.066234,0.996361,0
16720,-0.6103873,1.0574806,8.660345,-0.2538,-0.030399999,-0.9234,-0.2364,1.0307,9.7494,-0.05927138,0.05497787,-0.17772688,0.053348,0.008339,-0.070295,0.996063,0
16760,-0.735087,0.92498547,9.177137,-0.4886,-0.027099999,-0.8466,-0.26639998,1.0078,9.750999,-0.13428563,0.03317871,-0.12774065,0.051648,0.009995,-0.074424,0.995838,0
16800,-0.8053999,0.814201,9.348084,-0.4545,-0.095599994,-0.45889997,-0.2809,0.9586,9.7556,-0.09129817,-0.010175269,-0.089116514,0.049434,0.010562,-0.076717,0.99577,0
16840,-0.5923255,0.85306364,9.799534,-0.36249998,-0.13499999,-0.1487,-0.2846,0.9195,9.7592,-0.06443755,0.049864057,0.011379547,0.04741,0.011164,-0.077731,0.995783,0
16880,-0.23732285,1.208028,9.672144,0.088599995,0.265,-0.060599998,-0.3017,0.9033,9.7602,0.10698868,0.043039817,0.005201081,0.047604,0.011885,-0.077381,0.995793,0
16920,-0.23187365,1.4852957,9.422477,0.118999995,0.51949996,-0.3608,-0.3243,0.9385,9.7562,-2.97E-04,0.10145599,0.036128316,0.049247,0.013338,-0.07689,0.995733,0
16961,-0.23250572,1.6920015,10.035105,0.19929999,0.6737,0.1599,-0.35619998,0.9443,9.754499,0.09136798,0.038309976,0.024207717,0.049461998,0.01445,-0.076351,0.995748,0
17000,-0.09444647,2.2337997,9.526777,0.1388,1.118,-0.1496,-0.3742,0.9805,9.750299,0.068940505,0.041591197,0.01860521,0.051909,0.015567,-0.075453,0.99567497,0
17040,-0.65584844,1.9644138,10.156471,-0.0905,1.0835999,0.3144,-0.3899,1.0051,9.7472,0.04003785,0.013700835,-0.016702801,0.052835,0.016082,-0.075718,0.995598,0
17080,-0.178052,1.8893507,10.154001,0.19129999,0.8813,0.36429998,-0.3963,1.0167,9.7457,-0.13117895,-0.001832596,0.02581342,0.053029,0.016316,-0.075642,0.99559,0
17120,-0.060477536,1.2454733,11.548718,0.3696,0.47379997,1.5167999,-0.3893,0.9677,9.750999,-0.04464552,-0.051818825,0.058608156,0.05009,0.015903,-0.075219,0.995781,0
17160,-0.115189835,1.7183186,10.499762,0.1926,0.49469998,1.408,-0.3691,0.96639997,9.7519,0.27783898,-0.052132983,0.14945254,0.051731,0.014888,-0.073208,0.995862,0
17201,0.03722505,1.6126864,9.6599045,0.5349,0.7574,-0.083,-0.33879998,1.0665,9.742499,0.103882,-0.09836676,-0.078731805,0.056422,0.012717,-0.071407,0.995768,0
17240,-0.7759321,0.57450306,9.942775,-0.4434,-0.47399998,0.15529999,-0.3116,1.1015999,9.7395,-0.005270894,-0.007138397,-0.16910495,0.057279,0.01175,-0.073194,0.995602,0
17281,-1.2147509,-0.18080054,10.2297535,-0.7636,-1.1623,0.509,-0.32479998,1.1035,9.7389,0.1855285,0.071174525,-0.0999201,0.057952,0.012701,-0.076265,0.99532,0
17320,-0.61519486,0.11510364,8.761073,-0.33499998,-1.2203,-0.51519996,-0.3612,1.2203,9.7237,0.3400774,0.12091641,-0.08042477,0.065501,0.013746,-0.078358,0.994676,0
17360,-0.2163209,0.43440396,8.237749,-0.0365,-0.9716,-1.6651,-0.4145,1.3343999,9.7065,-0.06380924,0.1773778,-0.050073497,0.070047,0.016603,-0.079477,0.994233,0
17401,-0.33152032,0.20147687,9.239933,0.2582,-1.0819,-0.626,-0.4838,1.3074,9.707,-0.1396787,0.08646361,-0.072797686,0.068605,0.019276,-0.080195,0.994228,0
17440,-0.5335239,0.2827265,9.426613,0.0444,-0.9453,-0.3595,-0.5212,1.2480999,9.7129,-0.21453588,0.001413717,-0.003211406,0.064828,0.021609,-0.081459,0.994331,0
17480,-0.47115973,0.6665266,9.947075,-0.0707,-0.72969997,0.2408,-0.5176,1.171,9.7227,-0.06757915,-0.06810275,0.13370967,0.061102,0.021262,-0.080455996,0.994656,0
17520,-0.12340673,1.35236,9.206165,0.3493,0.046499997,-0.4105,-0.48659998,1.1499,9.7268,-0.041783184,-0.045867253,0.104999006,0.060458,0.019821,-0.077745,0.994941,0
17560,-0.14496413,1.490381,9.241705,0.289,0.3381,-0.5704,-0.4655,1.1328,9.7298,-0.107808985,0.002164208,0.06260496,0.059521,0.019286,-0.076368,0.99511397,0
17600,0.024574088,1.6760179,8.983294,0.4222,0.54469997,-0.7026,-0.4615,1.0929999,9.7346,-0.14062117,-0.026895523,-0.029112091,0.05689,0.019233,-0.075149,0.995362,0
17640,-0.3594463,1.3742144,9.6805525,0.11,0.37289998,-0.103999995,-0.45319998,1.0318,9.7416,-0.21731095,0.021764256,-0.06632251,0.053182,0.019143,-0.076242,0.995485,0
17681,-0.56848884,1.3409061,9.850541,-0.0977,0.3597,0.1555,-0.4612,0.9543,9.7491,-0.049846604,0.026214845,0.005358161,0.050399,0.019724,-0.076969996,0.995563,0
17720,-0.6418184,1.5177132,9.579689,-0.15779999,0.5251,-0.17729999,-0.4705,0.94729996,9.7494,0.12501794,0.010332349,0.123866014,0.050482,0.020204,-0.075979,0.995625,0
17760,-0.42513362,1.7739694,9.18751,0.024699999,0.7453,-0.5437,-0.46699998,1.0121,9.743,0.16224581,0.004625123,0.15491542,0.053685,0.019921,-0.073183,0.995673,0
17800,-0.56461024,1.6529089,9.772269,0.0066,0.6362,-0.23529999,-0.4675,1.0602,9.7379,0.07162831,0.08995427,0.1388235,0.056093,0.020193,-0.070368,0.995737,0
17840,-0.52733725,1.761941,9.8686695,-0.0242,0.61719996,0.2705,-0.49539998,1.0989,9.7322,0.22596778,0.11878711,0.19196877,0.058684,0.021896,-0.067091,0.995778,0
17881,-0.5915402,2.0022516,9.486278,-0.1107,0.7413,-0.227,-0.5266,1.1905,9.7198,0.2186025,0.034121186,0.22579324,0.063706,0.023061,-0.063025,0.995709,0
17920,-0.63868684,2.2952638,9.543451,-0.0174,0.94939995,-0.15689999,-0.5317,1.2766,9.7086,0.07285004,0.08122762,0.23614305,0.067455,0.023437,-0.058486998,0.99573,0
17960,-0.1934132,2.28743,10.319115,0.1525,1.1309,0.033299997,-0.5448,1.3011,9.704599,-0.22202334,-0.038309976,0.14179055,0.067297,0.024127,-0.053881,0.995984,0
18000,-0.46442723,1.3200958,12.073624,0.0757,0.11889999,2.2851999,-0.5268,1.2231,9.7157,-0.0959582,0.060370937,0.11065388,0.062887,0.023698,-0.051678,0.996399,0
18040,-0.2783403,1.3998802,10.377581,0.23079999,0.0793,1.4433999,-0.55439997,1.2053,9.7164,0.24996606,0.11821115,0.11088077,0.063969,0.025958,-0.048974,0.996411,0
18080,-0.24468741,0.90802497,9.145065,0.3469,-0.1174,-0.5728,-0.592,1.2942,9.7028,0.014625859,0.034191,0.020490166,0.068158,0.027298,-0.047415,0.996173,0
18121,-0.4398819,0.17775512,9.925077,0.1521,-1.0570999,0.1748,-0.613,1.3023,9.700399,0.06997025,0.082623884,0.093218036,0.067923,0.028711,-0.046625,0.996186,0
18160,-0.5210932,0.59741074,8.752512,0.1994,-0.9213,-0.46559998,-0.63089997,1.3429999,9.6937,0.2822721,-0.09213593,0.074874625,0.071428,0.028712,-0.044803,0.996025,0
18200,-0.5518635,0.8354711,8.088762,0.062,-0.6254,-1.6301999,-0.5915,1.4405999,9.6821995,-0.030141836,-0.07892379,0.04993387,0.075357,0.026485,-0.043658,0.995848,0
18241,-0.76262033,0.6877392,9.159738,-0.2066,-0.73829997,-0.73359996,-0.5485,1.4247,9.686999,-0.10669198,-0.16919221,0.04670501,0.074007,0.024884,-0.042974,0.99602,0
18280,-0.15008773,1.1118865,8.891261,0.1786,-0.39929998,-0.6529,-0.4728,1.3995999,9.694699,-0.12950343,-0.25797713,-0.082623884,0.072222,0.019873,-0.042798,0.996271,0
18320,-0.3372281,0.5275288,10.022014,0.19669999,-0.5771,-0.2349,-0.3831,1.3321999,9.708099,-0.4827406,-0.06928957,-0.16304865,0.066825,0.015836,-0.045544,0.996598,0
18360,-0.49587747,0.55234236,10.971803,-0.3504,-0.7798,1.2025,-0.3654,1.1524999,9.7318,-0.22205824,0.03939208,0.010157816,0.05788,0.016136,-0.047618,0.997056,0
18400,-0.06735368,1.3477632,9.037029,0.46719998,0.0774,-0.0016,-0.3789,1.0797,9.7396,0.02380629,0.021886429,-0.04415683,0.056207,0.016762,-0.047417,0.997151,0
18440,-0.4549558,1.3113521,8.542953,-0.08,0.3202,-1.4828,-0.3906,1.0722,9.74,-0.28593728,0.047944196,-0.016598081,0.054605998,0.017548,-0.048085,0.997195,0
18481,-0.19713856,0.9738463,9.206883,0.1266,0.0765,-0.7186,-0.41099998,0.9629,9.7505,-0.28890434,-0.012374384,-0.06569419,0.048542,0.018946,-0.048335,0.997471,0
18520,-0.33642364,0.73026025,9.874243,0.3504,-0.0385,0.0951,-0.3994,0.86219996,9.7604,-0.001710423,-0.11067133,-0.19720475,0.044533,0.017517,-0.050766,0.997563,0
18560,-0.13871047,1.2306484,9.09811,-0.046099998,0.0813,-0.53389996,-0.3656,0.8601,9.762,-0.001727876,-0.035604715,-0.10873401,0.04502,0.016066,-0.053773,0.997408,0
18600,-0.4203931,1.4299802,9.46811,0.0722,0.5584,-0.3779,-0.3566,0.8537,9.762899,-0.05131268,-0.05825909,-0.22436208,0.044196,0.015691,-0.056977,0.99727297,0
18640,-0.31799787,1.547612,9.892716,0.002,0.6289,-0.0369,-0.3452,0.8322,9.7651,-0.06503097,0.04654793,-0.1836959,0.04346,0.015027,-0.060227,0.997124,0
18681,-0.36977968,1.4734875,10.026716,0.012,0.69409996,0.2753,-0.36499998,0.80619997,9.7666,-0.005131268,0.013840461,-0.19291124,0.042257,0.015959,-0.063927,0.996931,0
18720,-0.5640643,1.6341289,9.970606,-0.24399999,0.7195,0.2854,-0.36389998,0.8102,9.7663,0.08086111,-0.0659909,-0.13548991,0.042938,0.015309,-0.068491,0.996609,0
18760,-0.24530032,1.7551988,10.160044,0.057,0.9826,0.0118,-0.3414,0.8315,9.7653,-0.14477506,-0.12487831,-0.16006415,0.043158,0.013903,-0.071096,0.996438,0
18800,-0.5419228,1.1735227,11.220322,-0.21769999,0.53139997,1.4179,-0.302,0.77279997,9.7713995,-0.11116002,-0.036966074,-0.052377332,0.040466,0.012469,-0.073449,0.996399,0
18840,-0.339335,1.2316828,10.801269,-0.057299998,0.48929998,1.2674999,-0.2859,0.73649997,9.7747,0.115366265,-0.09258971,0.004974188,0.038963,0.011266,-0.074452996,0.996399,0
18881,-0.3331005,0.65634644,10.154642,-0.2392,0.0831,0.59319997,-0.2511,0.7798,9.7723,0.059829887,-0.035430185,0.024452062,0.04116,0.009369,-0.074372,0.996336,0
18920,-0.3704979,-0.11221145,9.915835,0.1762,-0.6502,0.18259999,-0.24489999,0.7973,9.7711,-0.00286234,0.17369516,-0.092746794,0.041366998,0.010163,-0.074434,0.996315,0
18960,-1.2836944,-0.75469065,9.042345,-0.76339996,-1.5432999,-0.3051,-0.30539998,0.8078,9.768499,0.21146409,0.18151425,-0.015149458,0.043198,0.013124,-0.076114,0.996076,0
19000,-1.2135633,-0.03712928,7.9922566,-0.8497,-1.2606,-1.5215,-0.376,0.88799995,9.7591,0.124756135,0.15379842,0.06613053,0.047732,0.016728,-0.075332,0.995874,0
19040,-0.63110197,0.57397634,9.615794,-0.6437,-0.50589997,-0.87829995,-0.4251,0.92759997,9.7534,-0.074735,0.056950092,0.17530087,0.048521,0.018253,-0.073302,0.995961,0
19081,0.3906284,0.591205,9.603439,0.7643,-0.2245,0.092,-0.45049998,0.91099995,9.753799,0.03361504,0.15053464,0.076515235,0.04821,0.020441,-0.069944,0.996175,0
19120,-0.114490725,0.17399143,9.57787,0.3997,-0.7478,-0.2382,-0.5009,0.9199,9.7505,-0.1144936,0.05518731,0.08948303,0.048366,0.022644,-0.06867,0.996208,0
19160,-0.088135354,0.48111963,10.066813,0.5261,-0.4827,0.3082,-0.5261,0.875,9.7533,-0.08155923,0.02094395,0.09941395,0.045877,0.02409,-0.0663,0.996453,0
19200,-0.6867432,0.6999401,9.808259,-0.071899995,-0.2941,0.12979999,-0.5262,0.8531,9.755199,0.11040953,-0.07225663,0.13159783,0.045432,0.023618,-0.064466,0.996605,0
19240,-0.47909892,1.2402347,9.013097,0.0245,0.3039,-0.67149997,-0.49519998,0.9022,9.752399,0.17458528,-0.032777283,0.17289232,0.047556,0.022363,-0.062325,0.996671,0
19280,-0.32972947,1.2369978,9.05942,0.1609,0.3048,-0.787,-0.4649,0.94049996,9.750299,-0.11384783,-0.09498082,0.07546803,0.049343,0.020864,-0.058937,0.996823,0
19321,-0.19444747,1.1205438,9.531039,0.2566,0.21609999,-0.1837,-0.44219998,0.9091,9.754399,-0.048205994,0.05092871,0.077178456,0.047261998,0.019938,-0.057265,0.99704,0
19360,-0.35562515,1.0451648,9.399673,0.174,0.1917,-0.56729996,-0.4486,0.88699996,9.7561,-0.09531243,-0.09040806,0.021607175,0.046503,0.020311,-0.056337,0.997121,0
19400,-0.18309897,0.93836427,9.974876,0.1822,0.0296,0.2618,-0.4175,0.85289997,9.7605,-3.67E-04,-0.0084823,0.05284857,0.04442,0.018718,-0.055609,0.997288,0
19440,-0.22541888,1.2512099,9.892402,0.18259999,0.3405,0.0762,-0.4105,0.85719997,9.7604,0.115209185,-0.05799729,0.10897836,0.045257,0.018408,-0.054258,0.99733,0
19480,0.22882822,1.6837846,9.749888,0.4633,0.65929997,0.1283,-0.3849,0.9097,9.7567,0.19910716,-0.032637656,0.12601277,0.048398,0.01676,-0.051747,0.997345,0
19521,0.23603955,1.7679263,9.751364,0.6414,0.8084,-0.19829999,-0.36679998,0.98609996,9.75,0.13716543,-0.008447394,0.012758357,0.051983,0.016024,-0.050012,0.997266,0
19560,-0.23838589,1.7448176,9.806679,0.22119999,0.65529996,0.2094,-0.3683,1.0411999,9.7442,0.15484561,0.09655161,0.012723451,0.054807,0.016391,-0.049961,0.997111,0
19600,-0.36334404,1.6001599,9.847639,0.1589,0.62229997,-0.24419999,-0.4041,1.0938,9.7369995,0.013543755,0.04207989,-0.012479104,0.057087,0.018253,-0.049734,0.996962,0
19640,-0.53662676,1.5852106,10.449216,-0.2471,0.3655,0.82659996,-0.4197,1.1054,9.735,0.15807447,0.039008107,0.114633225,0.057464,0.018602,-0.049684,0.996937,0
19681,-0.011587936,1.9801292,9.834797,0.4389,0.7985,0.100099996,-0.4186,1.1675999,9.727799,0.069097586,0.099326685,0.04787438,0.061349,0.018555,-0.04703,0.996835,0
19720,-0.58924174,1.422874,10.563237,-0.0774,0.3858,0.505,-0.452,1.1929,9.7233,0.097668625,0.003473205,0.023369959,0.061962,0.020244,-0.046328,0.996797,0
19760,-0.23086809,1.4352281,10.151664,0.2703,0.17289999,0.766,-0.4567,1.2392,9.717299,0.27282986,0.036494836,-0.056409042,0.065716,0.020354,-0.046108,0.996564,0
19800,-0.2795757,1.3746549,9.773074,0.2366,0.0642,0.0051,-0.4719,1.3379999,9.7034,0.15112805,0.048781954,-0.11960741,0.070365,0.021106,-0.047633998,0.996159,0
19840,-0.11198161,0.9116258,9.601889,0.4368,-0.32299998,-0.13319999,-0.4956,1.3919,9.694699,0.015341444,0.055588737,-0.19481365,0.072664,0.021987,-0.050399,0.995839,0
19880,-0.20709845,0.0961703,10.05649,0.1109,-1.1654,0.37939999,-0.5227,1.4008,9.691899,0.22556636,-0.06033603,-0.12131783,0.072954,0.02288,-0.053106,0.995657,0
19921,-0.21274877,0.44416273,8.022031,0.33179998,-1.2665,-1.01,-0.5083,1.4921,9.6791,0.328279,-0.07579965,-0.099728115,0.079478,0.021249,-0.056279,0.995019,0
19960,-0.6578117,1.0248141,7.6786838,0.0711,-0.6685,-2.3571,-0.48299998,1.6000999,9.663099,-0.085241884,-0.14608406,-0.16172221,0.083305,0.019392,-0.058753,0.994601,0
20000,-1.1203045,1.065889,8.692886,-0.62939996,-0.6121,-1.1295999,-0.4394,1.5633999,9.6712,-0.19769344,-0.17821556,-0.11780973,0.080195,0.016886,-0.061917,0.994711,0
20040,-0.96631896,1.0796221,9.218424,-0.41599998,-0.266,-0.84139997,-0.36839998,1.482,9.686999,-0.3543193,-0.2773677,-0.15262905,0.075337,0.01263,-0.064748,0.994973,0
20080,-0.9644994,0.45474508,10.648624,-0.8466,-0.7511,0.4781,-0.2713,1.3395,9.710899,-0.44505897,-0.1720022,0.052953288,0.066862,0.008324,-0.067027,0.995473,0
20120,-0.24534822,0.64807206,10.72995,-0.14459999,-0.668,1.25,-0.2083,1.1779,9.733399,-0.1624727,-0.043284167,0.16224581,0.059431,0.006458,-0.064999,0.996093,0
20161,-0.24961947,1.3711976,9.178508,-0.1006,-0.033999998,0.026899999,-0.1837,1.1226,9.740399,-0.018640116,0.006492625,0.20647246,0.057779,0.005646,-0.061434,0.996421,0
20200,0.15232868,1.6743323,9.008289,0.1449,0.5248,-1.0149,-0.1744,1.1029999,9.7428,-0.25244442,-0.011990412,0.15849335,0.056758,0.005595,-0.05842,0.996661,0
20240,0.28397146,1.4044292,10.157592,0.4396,0.43649998,0.2981,-0.16499999,1.005,9.7536,-0.19607028,-0.023073252,0.07086037,0.051700998,0.005555,-0.055608,0.997097,0
20280,0.24851814,1.5088738,9.520869,0.4236,0.5083,-0.1855,-0.1637,0.96529996,9.7576,0.107145764,0.054855697,0.040735986,0.050036,0.00592,-0.053863,0.997276,0
20320,-0.033001676,1.5494987,9.264219,0.2216,0.5568,-0.7412,-0.1867,1.0083,9.7528,0.038711403,0.044662975,0.001937316,0.051917,0.00677,-0.053377,0.9972,0
20360,0.04379474,1.5587115,9.525514,0.19039999,0.4956,-0.110999994,-0.20019999,1.0244,9.750899,0.15987216,0.018081611,-0.040509094,0.05338,0.007592,-0.053427,0.997115,0
20401,-0.046619896,1.6580038,9.599177,0.15879999,0.5347,-0.2417,-0.2078,1.0833,9.7444,0.14353588,0.016877335,-0.09293878,0.056569,0.007611,-0.054712,0.99686897,0
20440,-0.24648786,1.9061292,9.560545,0.0365,0.694,-0.058399998,-0.2228,1.1398,9.737599,0.1272694,0.067614056,-0.12498303,0.059524998,0.008454,-0.056746,0.996576,0
20480,-0.38057274,1.9531802,10.195401,0.0218,0.8089,0.045399997,-0.2571,1.1818,9.7317,0.00429351,0.11632619,-0.15988961,0.061166998,0.010093,-0.059298,0.996313,0
20520,-0.6780954,1.8066837,10.530887,-0.36479998,0.6252,0.94,-0.3019,1.1889,9.7296,0.104265966,0.038955748,-0.107459925,0.062037,0.011915,-0.062204998,0.996062,0
20560,-0.75552386,1.7508126,10.799842,-0.2189,0.5729,0.8272,-0.3302,1.2215999,9.7246,0.038938295,0.09646435,-0.033108898,0.063477,0.013278,-0.063798,0.995853,0
20601,-0.9253302,1.6788238,10.541823,-0.51519996,0.39029998,1.1649,-0.3575,1.2472999,9.7204,0.20315632,0.030839968,0.08449139,0.065704,0.014178,-0.063629,0.995707,0
20640,-0.39873034,1.366007,10.099096,-0.0713,0.2374,0.3805,-0.3601,1.3218,9.7104,0.07300712,0.038013272,0.06480408,0.069161,0.01404,-0.061823,0.995588,0
20680,-1.1878401,0.33121386,9.635435,-0.573,-0.78099996,0.17909999,-0.3782,1.3498,9.7059,0.023177972,0.21184807,0.0956615,0.070051,0.015094,-0.060762,0.995576,0
20721,-1.463834,0.46693638,9.810347,-1.2832,-1.0761,-0.3171,-0.4328,1.3605,9.7021,0.08923868,-0.06691592,0.31599185,0.070898,0.017869,-0.056765,0.995706,0
20760,-0.035874717,1.4770117,9.530551,0.1003,-0.22809999,0.12879999,-0.3945,1.4049,9.6974,0.21832323,0.10210176,0.27855456,0.073708,0.016444,-0.050212,0.995879,0
20800,-0.08516654,1.2874197,9.675238,0.6922,0.083,-0.1033,-0.4177,1.4858999,9.6844,0.27209684,0.16891296,-0.007487462,0.078001,0.018455,-0.04648,0.995698,0
20840,-0.5793106,0.6132795,8.502126,-0.1056,-1.0029,-1.1661,-0.4842,1.5926,9.6643,0.21170844,0.19977039,0.1067967,0.08405,0.021846,-0.046068,0.995156,0
20880,-0.10464577,0.7750127,8.817605,0.3117,-0.993,-0.89,-0.55689996,1.6696999,9.6474,0.035116024,0.19680333,0.16505578,0.086652,0.024715,-0.043896,0.994964,0
20921,0.10288364,1.0166546,8.835476,0.7328,-0.74579996,-0.903,-0.6152,1.6872,9.640699,-0.060440753,0.012723451,0.0832173,0.087558,0.028229,-0.039894998,0.994959,0
20960,0.15158169,1.0125941,9.625993,0.77989995,-0.68149996,-0.17199999,-0.6132,1.6621,9.6452,-0.14355333,-0.02480113,0.041102502,0.085559,0.027902,-0.038544,0.995196,0
21000,0.090347596,1.3217909,9.574097,0.80649996,-0.4003,-0.0253,-0.6006,1.6064999,9.655399,-0.1561197,-0.01850049,-0.05405285,0.082577,0.027505,-0.0382,0.995472,0
21040,-0.6334196,1.4663241,9.332704,0.16669999,-0.1131,-0.27089998,-0.59819996,1.5449,9.6656,-0.13189453,0.002076942,-0.08271115,0.079435,0.027508,-0.039612,0.995672,0
21080,-0.3030868,2.1074145,8.608592,0.2884,0.5868,-1.0551,-0.6023,1.4937999,9.6734,-0.1566433,-0.015149458,-0.10725048,0.077039,0.027665,-0.04101,0.9958,0
21120,-0.475182,1.8992245,9.240297,0.2969,0.6588,-0.91749996,-0.6009,1.4201,9.6846,-0.3474427,-0.07642797,-0.22523473,0.072225,0.027406,-0.043958,0.996042,0
21161,-0.54538,1.5525632,9.877297,0.0067,0.2816,0.1025,-0.58529997,1.2873,9.7041,-0.21343632,-0.043598324,-0.14791666,0.065775,0.026637,-0.04803,0.996321,0
21200,-0.112125255,1.738698,9.673935,0.5067,0.5308,-0.085099995,-0.5753,1.2049,9.7153,-0.12856095,-0.053407077,-0.16812757,0.062314,0.026065,-0.050721,0.996426,0
21240,-0.7517602,1.5096974,9.890945,-0.0175,0.38059998,0.0843,-0.5708,1.1491,9.7223,-0.12042772,0.10773917,-0.074124135,0.060186,0.025996,-0.053153,0.996431,0
21280,-0.29571265,1.7431799,9.838215,0.22049999,0.55759996,0.0234,-0.6128,1.1093999,9.724299,0.045553092,0.020367993,-0.006719518,0.058300998,0.02819,-0.054116,0.996432,0
21321,-0.47206956,1.8871386,9.711572,0.1809,0.6393,0.1839,-0.6222,1.1356,9.720699,0.17270033,0.05422738,0.05099852,0.060495,0.028738,-0.054,0.996292,0
21360,-0.4691486,2.1734946,9.660422,0.1389,0.927,-0.1503,-0.639,1.201,9.7118,0.12945107,0.011833333,0.07007497,0.063768,0.029457,-0.052718,0.996135,0
21400,-0.6363022,2.090454,10.104269,0.0624,0.92499995,0.34649998,-0.641,1.252,9.7052,0.111421816,0.032009337,0.0744732,0.066188,0.029467,-0.051407,0.996046,0
21440,-0.76349175,2.1278515,10.071324,-0.063,0.839,0.4613,-0.6527,1.2987,9.698299,0.094300136,0.08518952,0.108123146,0.068605,0.030397,-0.049515,0.99595,0
21480,-0.5333132,1.7480929,10.62134,0.1819,0.5974,0.5852,-0.6723,1.3343999,9.6921,-0.012060225,0.07094763,0.09904744,0.069844,0.031168,-0.047327,0.995946,0
21521,-0.82954305,1.1726034,10.737994,-0.0923,-0.1182,1.2056999,-0.6922,1.344,9.6894,0.22757348,0.062203534,0.18699458,0.070999,0.032562,-0.044794,0.995937,0
21560,-0.43381017,1.4536155,9.773495,0.0893,-0.1776,0.269,-0.69729996,1.4426,9.6748,0.3189589,-0.007819075,0.24343853,0.076968,0.032181,-0.040838,0.995676,0
21600,0.025340231,1.8607161,9.336247,0.6041,0.16149999,-0.3014,-0.68259996,1.5643,9.656899,0.13000958,0.072326444,0.14730579,0.081322,0.031908,-0.03739,0.995475,0
21640,-0.42494208,1.4047548,9.572172,0.2908,-0.18779999,-0.074099995,-0.6939,1.619,9.6470995,0.11786208,-0.020734511,-0.014154621,0.084607,0.032537,-0.034794,0.995274,0
21680,-0.8362276,0.9193543,9.127568,-0.0993,-0.6827,-0.382,-0.695,1.6633999,9.6395,0.101525806,0.06305875,0.023125613,0.08637,0.032577,-0.034942,0.995117,0
21721,-1.0482485,0.5151268,8.689478,-0.3409,-1.1374999,-0.8835,-0.7083,1.7062999,9.631,0.13395402,-0.12390092,0.04075344,0.088598,0.033227,-0.03453,0.994914,0
21760,-0.69259465,0.79658926,8.431823,-0.24769999,-1.1085,-1.1621,-0.6642,1.7558,9.625199,0.005078908,-0.19701277,0.052185345,0.091366,0.030048,-0.033702,0.994793,0
21800,-0.52464616,0.9246215,9.277129,0.0744,-0.8387,-0.67789996,-0.5844,1.7508,9.6313,-0.15707964,-0.23558454,-0.054681167,0.089875,0.025774,-0.03375,0.995047,0
21840,-0.23643221,1.078291,9.401762,0.14289999,-0.6838,-0.1634,-0.49589998,1.6938,9.6465,-0.114807755,-0.26260224,-0.15123278,0.086951,0.021074,-0.03579,0.995346,0
21880,-0.5129242,1.1237904,9.362775,0.031,-0.516,-0.4032,-0.4134,1.634,9.6607,-0.34667474,-0.11245156,-0.21298252,0.082959,0.017276,-0.039884,0.995604,0
21920,-0.26646507,1.0331459,9.960903,0.0793,-0.38709998,0.0045,-0.38329998,1.4952999,9.684299,-0.42207298,-0.07360053,-0.19163716,0.075126,0.016093,-0.043797,0.996081,0
21960,-0.7024492,0.86776406,10.253581,-0.2756,-0.4982,0.70589995,-0.3715,1.3318,9.7086,-0.18591247,-0.03164282,-0.08726646,0.067805,0.015883,-0.047067,0.996461,0
22001,-0.34764767,1.3595715,9.587734,-0.0041,-0.1011,0.15789999,-0.3685,1.2681,9.717299,-0.020839231,-0.005654867,-0.043772858,0.065397,0.015614,-0.048375,0.996563,0
22040,-0.38389587,1.8555734,8.529037,-0.0014,0.519,-1.0203,-0.37109998,1.2559,9.7188,-0.13107422,-0.016074482,-0.108053334,0.064686,0.015883,-0.049369,0.996557,0
22080,-0.4467676,1.4134696,9.596506,-0.059299998,0.25579998,-0.197,-0.3667,1.1984,9.7262,-0.21210986,-0.04061381,-0.16470672,0.060959,0.015347,-0.052101,0.996661,0
22120,-0.35178486,1.3096282,9.768276,-0.14469999,0.1239,0.18879999,-0.36519998,1.1214,9.7354,-0.015044739,0.040858157,-0.13238323,0.057822,0.015834,-0.055003,0.996684,0
22160,-0.5454662,1.5056463,9.36132,-0.105399996,0.34469998,-0.3012,-0.3848,1.1164,9.7352,0.055990163,0.042341687,-0.15301302,0.058368,0.016444,-0.057973,0.99647397,0
22201,-0.57909036,1.7001992,9.4873495,-0.1892,0.4852,-0.3866,-0.4089,1.1328,9.7324,0.036041047,0.07162831,-0.11943288,0.059148,0.017744,-0.060656,0.996246,0
22240,-0.7522773,1.8007845,9.586039,-0.1363,0.6076,-0.2069,-0.44219998,1.1477,9.729199,0.10835004,0.044889867,-0.13166764,0.059931,0.018877,-0.062448,0.996068,0
22281,-0.6210942,2.03533,9.539142,-0.3002,0.7348,-0.20109999,-0.46469998,1.1872,9.7234,0.073303826,0.07016224,-0.06702064,0.062592,0.020023,-0.06524,0.995703,0
22320,-0.80801433,1.9466009,10.06032,-0.1549,0.7456,0.26459998,-0.49229997,1.2156,9.7185,0.117268674,0.043877576,-0.08237954,0.064091,0.021211,-0.066756,0.99548197,0
22360,-0.9400115,2.206889,9.712434,-0.5266,0.8315,0.094399996,-0.5128,1.2572,9.7121,0.026005406,0.028710665,-0.01733112,0.066326,0.022021,-0.067917,0.99524,0
22400,-1.0777068,2.003554,10.494409,-0.29189998,0.8868,0.6936,-0.5219,1.2607,9.7112,-0.106150925,0.011152654,-0.015323991,0.065655,0.02233,-0.068528,0.995235,0
22440,-0.9716437,1.7497113,10.935927,-0.4333,0.5506,1.1604999,-0.5374,1.2243,9.715,-0.012915436,0.08381071,0.11887438,0.064048,0.023644,-0.06769,0.995367,0
22481,-0.7277128,1.6171683,10.11352,-0.3024,0.4276,0.8682,-0.56049997,1.2296,9.712999,0.07426376,0.018901916,0.1147554,0.065156,0.024504,-0.065038,0.995451,0
22520,-1.0968891,0.80143505,10.647877,-0.42499998,-0.19909999,0.5963,-0.5653,1.2484,9.7104,-0.059515726,0.16479398,0.14748032,0.06512,0.025244,-0.062822,0.995577,0
22560,-1.1616763,0.49129018,10.15991,-0.59139997,-0.8452,0.7169,-0.6148,1.2472999,9.7074995,0.29668853,0.12109094,0.2790956,0.066618,0.028043,-0.058822,0.995648,0
22600,-0.66518587,1.3937701,9.13659,-0.155,-0.27359998,-0.36229998,-0.6491,1.3719,9.688399,0.41666245,0.07876671,0.26015878,0.073933,0.029642,-0.052974,0.995413,0
22640,0.08376832,1.7023923,8.570993,0.5219,0.1709,-1.1314,-0.6592,1.5353999,9.663199,0.23989551,0.057002455,0.09342747,0.080158,0.029771,-0.049732998,0.995095,0
22681,0.20099802,1.13353,9.135709,0.99249995,-0.37939999,-0.5574,-0.6885,1.615,9.6481,0.045570545,0.22092378,-0.10370746,0.084297,0.03119,-0.048406,0.994775,0
22720,-0.58606225,0.757286,8.727239,0.3064,-0.8408,-0.83159995,-0.7772,1.6351999,9.638,0.07881907,0.10620329,-0.18592992,0.086112,0.036191,-0.051873,0.994275,0
22760,-0.4629141,1.0633799,8.66521,0.2863,-0.75699997,-1.058,-0.8354,1.6593,9.629,-0.0689056,0.018535396,-0.08724901,0.087165,0.038132,-0.055017,0.993942,0
22801,-0.46983814,1.1752849,8.871235,0.45009997,-0.4427,-0.80759996,-0.8423,1.6293,9.6335,-0.19446458,-0.106744334,-0.1116138,0.084963,0.038176,-0.056675,0.994038,0
22840,-0.6278555,0.87242794,9.665919,0.0791,-0.5722,-0.315,-0.8048,1.5431,9.6509,-0.3607072,-0.20090485,-0.114964835,0.079552,0.035711,-0.059049,0.994439,0
22880,-0.8632917,0.6122836,10.418235,-0.103999995,-0.7916,0.6818,-0.7351,1.4037,9.6777,-0.30689868,-0.087720245,-0.06899287,0.072213,0.032429,-0.061319,0.994974,0
22920,-1.0365074,0.9761639,9.960272,-0.3232,-0.46469998,0.3656,-0.7064,1.2885,9.6959,-0.11812388,-0.06620034,0.03202679,0.067054,0.031892,-0.061756,0.99532497,0
22960,-0.75981426,1.2416042,9.39729,-0.12789999,-1.00E-03,-0.30879998,-0.67609996,1.2465,9.7035,-0.07531096,-0.12705997,0.017819813,0.065489,0.029835999,-0.061328,0.995519,0
23000,-0.35862267,1.3880432,9.474431,0.14899999,0.0925,-0.2568,-0.6393,1.2117,9.7104,-0.20582668,0.12646656,0.10533062,0.06381,0.028846,-0.060731,0.995694,0
23041,-0.20668665,1.4776438,9.3160305,0.47779998,0.341,-0.31219998,-0.67399997,1.1396999,9.7168,-0.08449139,-0.04834562,0.035918877,0.059511,0.031087,-0.058257,0.996041,0
23080,-0.45693818,1.3746166,9.227272,0.3344,0.2584,-0.4651,-0.6482,1.1046,9.7226,-0.104021624,-0.06270968,0.035709437,0.058052,0.029515,-0.057781998,0.996202,0
23120,-0.64885736,1.4054825,9.494791,0.0067,0.3028,-0.45139998,-0.6343,1.0602,9.728499,-0.2376964,0.061871924,0.10183996,0.054788,0.02956,-0.056271,0.996472,0
23160,-0.7250121,1.5078586,10.321614,-0.19749999,0.4899,0.32549998,-0.6457,0.98099995,9.736,0.022567106,-0.096028015,0.15381587,0.051452998,0.029879,-0.053967,0.996768,0
23200,-0.5480902,2.0212903,9.528559,0.1117,0.8243,0.0997,-0.6119,0.9996,9.7362995,0.12428489,0.05440191,0.24923302,0.053354,0.028582,-0.050381,0.996894,0
23241,-0.2247102,2.3314164,9.711553,0.43069997,1.2817999,-0.0513,-0.6171,1.0521,9.7304,0.11170107,0.057491146,0.19046777,0.055165,0.028975,-0.046706,0.996963,0
23280,-0.6762758,1.8789024,9.517737,0.1292,0.9485,-0.2608,-0.62939996,1.1008999,9.724199,0.03174754,0.049270645,0.10531317,0.058037,0.02979,-0.042788,0.996952,0
23320,-0.37906915,1.4683447,10.405354,0.0224,0.4964,0.3294,-0.64019996,1.1118,9.7223,-0.088435836,-0.002495821,0.1385617,0.05778,0.030388,-0.040171,0.997057,0
23360,-0.5237077,1.0122781,11.124208,0.3516,-0.0032,1.4339,-0.636,1.082,9.7259,0.034121186,0.09695304,0.093322754,0.05633,0.030598,-0.03777,0.997228,0
23400,-0.49054322,1.3264644,9.955828,0.117599994,0.0558,0.5658,-0.6569,1.1111,9.7213,0.22752112,-0.04223697,0.07855727,0.05914,0.03135,-0.035884,0.997111,0
23440,-0.33514994,1.2707944,9.859744,0.2207,0.15429999,-0.0436,-0.64239997,1.1891,9.712999,0.018971728,0.06789331,0.0726057,0.062206,0.030787,-0.034512,0.996991,0
23481,-0.5786594,1.0655825,9.938666,0.1303,-0.15799999,0.2263,-0.6644,1.2067,9.7094,0.16709782,0.02417281,0.08862782,0.063315,0.032154,-0.033035,0.996928,0
23520,-0.42219356,1.3612952,8.99219,0.18339999,0.020499999,-0.28509998,-0.66389996,1.2837,9.6995,0.3533768,-0.13393657,0.11011282,0.068383,0.031296,-0.031061,0.996684,0
23560,-0.6879499,0.823184,8.422141,0.1138,-0.3206,-1.2909,-0.6139,1.4090999,9.6854,0.02815216,-0.04251622,0.04766494,0.073696,0.028863,-0.02971,0.99642,0
23600,-0.76840466,0.15659994,9.344732,-0.26549998,-1.2134,-0.585,-0.5876,1.4193,9.6855,-0.04740314,-0.12599532,0.09911725,0.073065,0.027415,-0.028616,0.996539,0
23640,-0.28429708,0.4268287,9.130173,0.2516,-1.0418999,-0.3841,-0.536,1.4046999,9.690599,-0.07288495,-0.09658652,0.029147,0.072422996,0.024945,-0.026959,0.996697,0
23681,-0.58175266,0.48134947,9.518321,-0.0668,-0.93259996,-0.3026,-0.49199998,1.3738999,9.6974,-0.14578736,-0.15381587,-0.004468043,0.070899,0.023259,-0.026841,0.99685,0
23720,-0.25251165,1.2204299,9.239138,0.0567,-0.3231,-0.26319999,-0.4391,1.3234,9.707,-0.15032521,-0.0983144,-0.036233034,0.067650996,0.020194,-0.026774,0.997145,0
23760,-0.49249685,0.92875874,9.892641,0.1261,-0.16149999,-0.086899996,-0.4007,1.2598,9.7171,-0.31136674,-0.08230973,-0.15542157,0.063436,0.018241,-0.028492,0.997412,0
23800,-0.3846333,0.7892055,10.282388,-0.1024,-0.3768,0.5251,-0.37809998,1.1417,9.7326,-0.21329668,0.019041542,-0.058957223,0.057608,0.017553,-0.030943999,0.997705,0
23840,-0.14518438,1.4248372,10.111221,0.1582,0.1426,0.49679998,-0.38369998,1.0634999,9.7411995,-0.04235914,-0.005253441,-0.043406337,0.054425,0.017866,-0.031724,0.997853,0
23880,-0.34089604,1.68932,9.497262,0.0814,0.65779996,-0.2503,-0.3796,1.0476,9.7431,-0.003193953,-0.049270645,-0.18938568,0.05416,0.017369,-0.033625,0.997814,0
23921,-0.7534361,1.2384918,9.22778,-0.40539998,0.29369998,-0.408,-0.3791,1.0399,9.743899,-0.060510565,0.088435836,-0.13793337,0.05348,0.017874,-0.037195,0.997715,0
23960,-0.31268275,1.3410403,9.061805,-0.027999999,0.2382,-0.65419996,-0.4132,1.017,9.745,-0.020804325,0.023073252,-0.16648696,0.052598,0.019195,-0.039974,0.99763,0
24000,-0.4486734,1.394134,8.774529,0.0611,0.4281,-0.9195,-0.4337,1.0035,9.7455,-0.10185742,0.087057024,-0.1817935,0.051819,0.020394,-0.043346,0.997506,0
24040,-1.0556322,1.2722596,9.227904,-0.4179,0.30629998,-0.7064,-0.47439998,0.9586,9.748099,-0.10356784,0.020525072,-0.14543828,0.050017,0.021944,-0.046075,0.997443,0
24080,-1.0269498,1.2702773,9.669529,-0.5075,0.3691,-0.2483,-0.48279998,0.9253,9.750899,-0.034313172,-7.85E-04,-0.085014984,0.048386,0.022329,-0.048524998,0.997399,0
24120,-0.47355396,1.4954664,10.035383,-0.1678,0.4243,0.2608,-0.47939998,0.9191,9.751599,0.1330639,-0.05190609,-0.02141519,0.048485,0.021817,-0.050192,0.997323,0
24161,-0.18881632,1.6817256,9.983055,0.29819998,0.7007,0.0784,-0.4649,0.96629995,9.7478,0.11691961,-0.011187561,-0.11435397,0.051086,0.0211,-0.051031,0.997166,0
24200,-0.30113313,1.7894646,9.864024,0.1557,0.7032,0.2402,-0.46949998,1.0129,9.7428,0.13601351,0.063599795,-0.14021975,0.053629998,0.021433,-0.053536,0.996894,0
24241,-0.45689988,1.9522704,9.563332,0.118599996,0.862,-0.1371,-0.4913,1.0502,9.7378,0.034749504,0.06848672,-0.1860521,0.054943,0.022103,-0.05496,0.99672997,0
24280,-1.1534115,1.7854041,10.464069,-0.6853,0.7941,0.5218,-0.53069997,1.0494,9.7358,-0.061261058,0.008063421,-0.10255554,0.054907,0.023925,-0.060086,0.996394,0
24320,-1.4741292,1.4498998,11.193295,-0.876,0.5301,1.1961,-0.5459,1.0193,9.7382,-0.03785619,0.07672467,0.080808744,0.053206,0.025153,-0.06105,0.996398,0
24360,-0.9810002,1.1549151,10.607022,-0.47759998,0.28059998,1.4721,-0.5618,1.0236,9.7368,0.27560493,-0.005375614,0.13803808,0.055055,0.025325,-0.058761,0.99643,0
24400,-1.0939875,0.7369832,9.784691,-0.6071,-0.3909,0.0804,-0.55,1.1264,9.7262,0.18303268,-0.013124876,0.23279202,0.059054,0.024783,-0.056739,0.996332,0
24440,0.009662998,1.3838006,10.15177,0.17629999,-0.0034,0.47169998,-0.5294,1.2096,9.717299,0.34286994,-0.04675737,0.2359336,0.064517,0.023369,-0.050726,0.996352,0
24481,0.05956774,1.5338788,9.266901,0.751,0.1856,-0.30609998,-0.5058,1.3441,9.7009,0.35044464,0.0749968,0.033807028,0.071657,0.022628,-0.047745,0.996028,0
24520,0.5192162,1.3996024,8.98045,0.7621,-0.0729,-0.5884,-0.52669996,1.4850999,9.6792,0.41565016,0.099728115,-0.109868474,0.077165,0.023292,-0.047548,0.995611,0
24560,-0.13108733,0.8799649,8.233995,0.6877,-0.6314,-1.4835,-0.5798,1.6316999,9.6525,0.120741874,0.13925982,-0.32634166,0.086047,0.026233999,-0.051579,0.994609,0
24600,-0.5133168,0.41649532,8.943139,0.17019999,-1.2348,-0.7281,-0.6518,1.6643,9.6423,-0.08953539,0.11763519,-0.3159046,0.086677,0.029312,-0.05817,0.99410397,0
24641,0.1330793,0.76758105,9.484008,0.5222,-1.0849999,-0.3288,-0.70849997,1.6243999,9.6451,-0.03169518,-0.07885397,-0.2772979,0.084908,0.030961,-0.063703,0.993868,0
24680,-0.30044356,0.9674203,9.115052,0.6181,-0.63809997,-0.4116,-0.70629996,1.5992,9.6495,-0.1197994,-8.73E-05,-0.33904767,0.084153,0.030461,-0.068295,0.993642,0
24720,-0.31175378,1.0328012,9.631548,0.092199996,-0.6162,-0.30429998,-0.70019996,1.538,9.6599,-0.23518312,-0.19020598,-0.19067723,0.080072,0.028863,-0.075606,0.99349797,0
24760,-0.70280355,1.1093773,9.880784,0.0726,-0.29569998,0.20349999,-0.6414,1.4233999,9.6814995,-0.18884462,-0.11856022,-0.15706217,0.075185,0.026921,-0.079169996,0.993657,0
24801,-0.71117365,1.2062659,9.55728,-0.15789999,-0.2507,-0.0027,-0.607,1.3686999,9.6916,-0.07590437,-0.14301229,-0.049340457,0.071707,0.024509,-0.08201,0.993746,0
24840,-0.27445212,1.5999205,8.900494,0.2287,0.2004,-0.70629996,-0.5523,1.3391,9.698999,-0.1047023,-0.126676,-0.002426008,0.070569,0.022479,-0.082531996,0.993832,0
24881,-0.5790137,1.3161502,9.553314,0.2735,0.1981,-0.53,-0.5089,1.2825999,9.709,-0.2879444,-0.02242748,-0.0437205,0.066102,0.020298,-0.08313,0.994136,0
24920,-0.71827006,1.2350442,9.865739,-0.24479999,-0.0028,0.15269999,-0.5004,1.1796,9.7225,-0.122783914,-0.017383479,0.08148942,0.062196,0.020454,-0.083273,0.994373,0
24960,-0.6052925,1.6026595,9.4232435,0.014699999,0.4157,-0.195,-0.49519998,1.1434,9.727099,-0.046355944,0.06583382,0.14901622,0.060105,0.020641,-0.080551,0.994722,0
25000,-0.7520858,1.5170524,9.623092,-0.2809,0.40199998,-0.3136,-0.5133,1.1277,9.728,-0.028867746,0.08471828,0.27351055,0.059275,0.022038,-0.07679,0.995039,0
25041,-0.41699332,1.7672751,9.930584,0.111499995,0.5785,0.259,-0.5366,1.1317999,9.726299,0.25455627,0.09801769,0.37836993,0.060437,0.023541,-0.070419,0.995406,0
25080,0.085511304,2.4343092,9.0196,0.51129997,1.0157,-0.68039995,-0.5505,1.2397,9.712299,0.2311165,0.005602507,0.27553514,0.066661,0.023803,-0.063306,0.99548,0
25120,-0.13306016,2.1602979,9.699774,0.7065,1.0086,-0.24749999,-0.5496,1.3253,9.701099,-0.056321774,0.2356718,0.13187708,0.069389,0.024846,-0.058828,0.995543,0
25160,-0.56855583,1.8549126,10.243179,0.1832,0.5022,0.50049996,-0.6245,1.3119,9.6984,0.029216811,0.19306833,0.14768976,0.068733,0.02906,-0.055855,0.995646,0
25201,-1.2414798,1.9071349,9.76478,-0.3617,0.5258,0.13419999,-0.6875,1.3275,9.691999,0.04225442,0.1105317,0.21909118,0.06967,0.031474,-0.053381,0.995643,0
25240,-0.8729834,1.8991765,10.196274,-0.332,0.5994,0.13769999,-0.70739996,1.3422999,9.688499,-0.050440013,0.005427974,0.30839968,0.070369996,0.032699,-0.049903,0.995735,0
25281,-0.38394377,1.7333829,10.504952,0.2082,0.3029,1.1467,-0.6888,1.3446,9.6895,0.1436406,0.03234095,0.31742302,0.070753,0.032259,-0.040353,0.996155,0
25320,0.2643486,1.9218545,9.870278,0.5401,0.5281,0.095199995,-0.6774,1.4037,9.6819,0.006283185,-0.07691666,0.18884462,0.073002,0.032043,-0.035905,0.99617,0
25360,0.10392751,1.4060668,10.460497,0.9421,0.1893,0.70199996,-0.6479,1.4089999,9.6832,-0.09698795,0.16055284,0.061522856,0.072655,0.031263,-0.031965,0.996354,0
25400,-0.78196543,0.7310647,9.7956085,0.2043,-0.419,0.30949998,-0.70449996,1.3801,9.6834,0.05256932,0.07065093,0.022095868,0.071719,0.034342,-0.030784,0.996358,0
25441,-0.8604091,0.5462898,9.430483,-0.2122,-0.8865,-0.14649999,-0.7194,1.4061999,9.6785,0.21423917,-0.067282446,0.12203342,0.073845,0.034273,-0.029835,0.996234,0
25480,-0.7278756,0.69198173,8.540366,0.1361,-0.8653,-0.8617,-0.6853,1.4929999,9.668,0.17729054,-0.015568337,0.114144534,0.078561,0.032461,-0.027583,0.995998,0
25520,-0.9035621,0.7403446,8.591124,-0.34,-0.8973,-1.3238,-0.6645,1.5555999,9.659599,-0.014067354,-0.11655309,0.12960815,0.080452,0.031985,-0.025225,0.995925,0
25560,-0.22547634,1.3559896,8.712605,0.3583,-0.39609998,-0.876,-0.6231,1.5532999,9.6627,-0.106238194,-0.07005752,-0.012479104,0.079991,0.029465,-0.023316,0.996087,0
25600,-0.38299567,1.1044931,9.348535,0.2669,-0.18869999,-0.70949996,-0.5905,1.5028,9.6728,-0.3348065,-0.11936307,-0.21322687,0.077597,0.028337,-0.024206,0.996288,0
25640,-0.9141924,0.5083369,10.466291,-0.2504,-0.7517,0.5537,-0.5635,1.3694999,9.694099,-0.30438542,0.027872909,-0.15172148,0.070817,0.026816,-0.028301,0.996727,0
25680,-0.42899308,0.8771206,9.936885,0.0338,-0.5545,0.5107,-0.5829,1.2606,9.7077,-0.07056366,0.056653388,-0.05906194,0.064729,0.028158,-0.031026,0.997022,0
25721,-0.6090849,1.0505278,9.106107,-0.0357,-0.271,-0.3351,-0.6008,1.2304,9.7105,-0.006161012,-0.021450097,-0.07988372,0.063858,0.028642,-0.032523,0.997017,0
25760,-0.46398672,1.3447273,8.643126,0.1007,0.0158,-1.0624,-0.6008,1.2197,9.7119,-0.14795156,0.012444197,-0.113149695,0.062809,0.028746,-0.03407,0.997029,0
25800,-0.6745041,1.2616485,9.190201,0.2609,0.25149998,-0.77529997,-0.6042,1.1606,9.7189,-0.17299703,-0.040142573,-0.26200882,0.060388,0.028702,-0.036217,0.997104,0
25840,-0.61792433,1.0341324,9.530637,-0.2478,-0.049999997,-0.43039998,-0.6053,1.0895,9.727099,-0.15919147,0.032620203,-0.15577063,0.056042,0.028815,-0.041586,0.997145,0
25880,-0.9235968,1.1501554,9.9705,-0.2385,0.115399994,0.26029998,-0.6263,1.0287,9.7324,0.023684118,0.05667084,-0.19249237,0.053619,0.030016,-0.044936,0.99709797,0
25921,-0.5971043,1.5086919,9.131322,-0.1595,0.3383,-0.4626,-0.6598,1.0408,9.7289,0.043388885,0.044436082,-0.13718288,0.054737,0.031103,-0.048164,0.996853,0
25960,-0.77307814,1.6167948,9.662691,0.044499997,0.56,-0.1265,-0.6721,1.0482,9.7272,0.09979793,-0.006248279,-0.13931218,0.055469,0.031626,-0.051229,0.996643,0
26000,-0.20462762,2.2043417,9.286324,0.47399998,1.0806,-0.45409998,-0.67789996,1.0845,9.722799,0.11194542,-0.04668756,-0.144234,0.057808,0.031688,-0.05359,0.996384,0
26040,-0.44592488,2.0599136,9.747265,0.2519,0.9422,-0.021499999,-0.6587,1.1229,9.7198,-3.67E-04,-0.17118189,-0.30674163,0.059398,0.029519,-0.057902,0.996116,0
26081,-1.003477,2.0248816,10.19363,-0.39119998,0.8287,0.2785,-0.6089,1.1129,9.724199,-0.09019861,-0.21451841,-0.21903881,0.058215998,0.02674,-0.063735,0.995908,0
26120,-0.5719269,1.7847625,11.029896,-0.1625,0.8401,1.0834,-0.5337,1.072,9.7332,-0.07457792,-0.26888543,-0.19203858,0.05591,0.022224,-0.068133,0.99586,0
26160,-0.6414449,1.4173867,10.789489,0.0173,0.5086,1.1439999,-0.43899998,1.0407,9.7413,0.035587262,-0.23762658,-0.19113101,0.05462,0.018569,-0.071302,0.995785,0
26200,-0.3617926,1.0030748,10.281879,-0.2692,0.0265,0.57269996,-0.3486,1.0521,9.7438,0.075764745,-0.3381401,-0.119729586,0.055336,0.011836,-0.075804,0.995515,0
26241,-0.26920405,0.7458034,10.242098,0.017199999,-0.2882,0.4737,-0.2428,1.0727999,9.7446995,-0.04358087,-0.06756169,-0.13159783,0.055584,0.008088,-0.077854,0.995381,0
26280,-0.8315733,0.4768771,9.705893,-0.4543,-0.7823,0.1797,-0.22909999,1.0921,9.7429,0.20586158,-0.078417644,-0.14444345,0.056544,0.007112,-0.081401,0.99505,0
26320,-0.08296388,1.1075578,9.282186,-0.2945,-0.2462,-0.46969998,-0.20549999,1.1484,9.736899,0.11671016,-0.069830626,-0.08079129,0.060064,0.005071,-0.083985,0.994642,0
26360,0.27936503,0.8601696,9.103138,0.7119,-0.1507,-0.4653,-0.1725,1.1902,9.7326,0.09485865,-0.007679449,-0.24668483,0.061752,0.003243,-0.087185,0.994271,0
26400,0.14473428,0.42329487,8.742695,0.1451,-0.7626,-0.922,-0.17449999,1.2235,9.7284,-0.008517207,0.018901916,-0.14756759,0.063312,0.003197,-0.091462,0.993788,0
26440,-0.13079046,0.6341378,9.330616,0.109299995,-0.79389995,-0.6874,-0.18769999,1.2156,9.7291,-0.030351276,-0.14175564,-0.15170401,0.062317,0.003617,-0.094386,0.993576,0
26481,-0.065658584,0.9506705,8.368979,0.076799996,-0.2636,-1.3564999,-0.1357,1.2049999,9.731299,-0.179926,-0.059760075,-0.06223844,0.06194,9.29E-04,-0.096838,0.99337,0
26520,-0.5053489,0.58950037,9.931168,-0.1358,-0.39299998,-0.26749998,-0.118999995,1.1285,9.7407,-0.3160442,-0.12594296,-0.026232298,0.056029,1.22E-04,-0.098165,0.993591,0
26560,-0.11781388,0.9710595,9.511101,-0.19049999,-0.19929999,0.1409,-0.064399995,1.0131999,9.7539,-0.16285667,-0.004572763,0.11325441,0.051805,-0.001814,-0.098291,0.993806,0
26600,0.019699492,1.2879943,9.3910265,-0.047799997,0.2884,-0.5031,-0.0502,0.9472,9.7606,-0.17336355,-0.09265953,0.10946705,0.047473,-0.002504,-0.095305,0.994312,0
26640,-0.26751852,1.2172025,9.479545,-0.1626,0.3978,-0.2548,-0.0138,0.877,9.7673,-0.19416788,0.018081611,0.17743017,0.044631,-0.003495,-0.093687996,0.994594,0
26681,-0.08107725,1.1636204,9.580935,0.012999999,0.384,-0.2907,-0.012999999,0.80249995,9.7737,-0.12023573,-0.007243116,0.21966714,0.040847,-0.003029,-0.090079,0.995092,0
26720,0.12072523,1.3426492,9.116297,-0.0013,0.5433,-0.5588,0.0013,0.76089996,9.776999,-0.17615607,0.022305308,0.21647319,0.038141,-0.00354,-0.084564,0.995681,0
26760,0.27638665,0.8950388,10.095123,-0.1829,0.1855,-0.1425,0.0063,0.6872,9.782499,-0.18432422,-0.067073,0.28832838,0.033666,-0.003215,-0.079852,0.996232,0
26800,0.3206219,1.1516876,10.025068,0.6619,0.573,0.51019996,0.044099998,0.62329996,9.786699,0.04330162,-0.034260813,0.12836896,0.031506,-0.005094,-0.075749,0.996615,0
26840,0.5617564,1.2980307,9.841578,0.2798,0.6002,-0.2047,0.0633,0.6354,9.7858,-0.021938788,0.021519909,0.25509733,0.03209,-0.005599,-0.073256,0.99678,0
26880,0.57200354,1.186413,10.151578,0.58,0.5929,0.3344,0.073199995,0.63659996,9.7856,0.043458696,-0.052778758,0.22252949,0.03215,-0.005908,-0.067105,0.99721,0
26920,0.61079913,1.3357539,10.237511,0.4845,0.6644,0.4534,0.093899995,0.6475,9.784699,0.030613074,0.06138323,0.24562019,0.032775,-0.006859,-0.062458,0.997485,0
26961,0.6124751,1.1921018,10.683101,0.5506,0.541,0.83699995,0.0905,0.6608,9.783899,0.024923302,-0.015515977,0.10485938,0.033589,-0.006904,-0.058453,0.997701,0
27000,0.40909246,0.8559367,11.12304,0.2999,0.1677,1.3278999,0.0914,0.6717,9.7831,0.088872164,0.11995648,0.12847368,0.034179,-0.006138,-0.056117,0.99782,0
27040,0.7276841,1.1490253,10.236141,0.6764,0.4071,0.5086,0.0546,0.7162,9.7803,0.23804545,0.050265484,-0.024556782,0.037575,-0.004554,-0.054186,0.997813,0
27080,0.42011535,0.73412925,10.039051,0.5027,0.1937,-0.0655,0.036599997,0.7967,9.774099,-0.055833083,0.039357174,-0.12779301,0.040653,-0.003983,-0.055682,0.997612,0
27120,0.54480535,0.25300965,10.614913,0.4432,-0.5002,0.94339997,0.0115,0.78849995,9.774799,0.17451547,0.073635444,-0.046896998,0.040135,-0.002904,-0.057527,0.997532,0
27160,-0.19469649,-0.008906431,8.490721,0.1515,-0.82839996,-0.5793,-0.0044,0.86759996,9.7681,0.45415214,-0.05778785,-0.059166662,0.04646,-0.002618,-0.058605,0.997196,0
27200,-0.77050203,0.22009417,7.6777263,-0.83849996,-0.92819995,-2.1134,0.0148,1.0261999,9.7527,0.09079203,-0.11637855,0.06939429,0.052261,-0.003854,-0.059086,0.996876,0
27241,-0.27444255,0.30168858,8.744707,-0.4719,-0.79109997,-1.5805,0.0503,1.0559,9.749499,-0.16212364,-0.17964675,0.01834341,0.053181,-0.0066,-0.058071,0.996873,0
27280,0.0559094,0.4665054,9.509979,-0.1639,-0.5241,-0.2355,0.13679999,0.9801,9.756499,-0.17596409,-0.17474237,-0.07145378,0.048738,-0.010758,-0.058769,0.997023,0
27320,-0.10668563,0.14223474,9.990966,-0.2069,-0.7055,0.1282,0.1929,0.89839995,9.7635,-0.421689,-0.020001473,-0.17929767,0.043315,-0.012748,-0.06142,0.99709,0
27360,-0.26757598,0.14078863,10.691375,-0.6149,-0.7396,0.91239995,0.19319999,0.7396,9.7768,-0.25614452,0.096202545,0.026755897,0.035249,-0.011736,-0.063867,0.997266,0
27400,0.18176779,0.63298863,9.893531,0.0583,-0.0951,0.3665,0.1671,0.6541,9.783299,0.11267845,-0.013997541,0.013072516,0.032883,-0.010717,-0.0632,0.997401,0
27441,-0.06915412,0.84990335,8.557997,-0.1838,0.0676,-1.1218,0.1642,0.6874,9.781099,-0.10995574,0.11548844,0.10772172,0.034521,-0.010109,-0.062349,0.997405,0
27480,0.7610976,0.9773323,9.571865,0.3895,0.299,-0.537,0.1302,0.6423,9.784699,-0.10700613,-0.032567844,-0.012950343,0.031436,-0.008516,-0.060484,0.997637,0
27520,0.15503892,1.0602005,9.125481,0.3373,0.4034,-0.40179998,0.1431,0.6066,9.786799,-0.047926743,0.041573744,-0.1531701,0.030398,-0.009326,-0.062128,0.997561,0
27561,-0.3129509,0.88394886,9.694285,-0.514,0.33409998,-0.44309998,0.1217,0.5778,9.788799,-0.07564257,0.029984757,-0.0824668,0.028505,-0.007767,-0.064737,0.997464,0
27600,-0.19688958,0.9244108,9.525149,-0.2748,0.3003,-0.0813,0.1081,0.56259996,9.7899,0.10458013,0.031887166,-0.06274459,0.028756,-0.007365,-0.066234,0.997362,0
27640,-0.45350012,1.1449264,9.571281,-0.5057,0.5191,-0.3931,0.093899995,0.5988,9.7879,0.06691592,0.02804744,0.039845865,0.030156,-0.006825,-0.066924,0.997278,0
27680,0.038335957,1.2988927,9.8073015,-0.105399996,0.65209997,-0.047799997,0.0858,0.6325,9.7858,0.10882128,-0.006213372,0.054087754,0.03223,-0.006538,-0.065729,0.997295,0
27720,-0.29493693,1.3221548,9.988811,-0.38349998,0.6124,0.1705,0.0893,0.67219996,9.7831,0.10904817,0.011239921,0.10485938,0.033927,-0.006775,-0.064949,0.997288,0
27760,0.14316368,1.4999769,10.172464,-0.081099994,0.79389995,0.311,0.0909,0.7162,9.78,0.124424525,-0.07162831,0.09747664,0.036752,-0.007097,-0.062359,0.997351,0
27801,0.54127157,1.3411168,10.941578,0.2832,0.5708,0.9032,0.1187,0.7628,9.776199,0.08831366,-0.075939275,0.0959582,0.038947,-0.008854,-0.060562998,0.997364,0
27840,0.81809866,1.5494316,11.413476,0.6429,0.6956,1.6834999,0.1548,0.80439997,9.7723,0.2659358,-0.006143559,0.059655353,0.041513,-0.010692,-0.058864,0.997345,0
27880,-0.29975405,1.7444824,10.128613,-0.1024,0.86039996,0.9953,0.16129999,0.9145,9.7625,0.49389327,-0.09145525,-0.02146755,0.048288,-0.011235,-0.058304,0.997067,0
27920,0.041228153,1.1580945,8.427361,-0.6101,0.19919999,-1.0055,0.1982,1.0952,9.743199,0.08880235,-0.013561208,-0.06667158,0.056728,-0.013999,-0.058869,0.996554,0
27960,-0.6427186,-0.32131144,10.122972,-0.7581,-1.1247,-0.13069999,0.1893,1.1148,9.7411995,-0.13297664,0.17695893,-0.15046483,0.055279,-0.012208,-0.061465,0.996502,0
28001,-0.19854635,0.31321904,9.201339,-0.82629997,-1.1218,-0.0473,0.1104,1.0826,9.745999,0.18011798,0.1344078,-0.009424778,0.055624,-0.008209,-0.063162,0.996418,0
28040,0.5599463,0.7520762,9.253542,0.4292,-0.3611,-0.6877,0.060999997,1.1456,9.7393,0.1049641,0.02953097,-0.0988729,0.058816,-0.006712,-0.063849,0.996202,0
28080,0.54037136,0.67335486,9.229849,0.5261,-0.5457,-0.4763,0.035499997,1.186,9.7345,0.059131756,0.12924163,-0.06806784,0.060728,-0.00518,-0.065611,0.995982,0
28120,0.44638455,0.58355314,8.793539,0.6814,-0.5092,-0.98469996,-0.0145,1.2054,9.7322,-0.044540804,0.025272368,-0.101054564,0.061453998,-0.002901,-0.066869,0.995863,0
28160,-0.10786357,0.59713304,9.009017,-0.0918,-0.7881,-0.6825,-0.025799999,1.1902,9.734099,-0.08101819,-0.029024825,0.05000368,0.060465,-0.003056,-0.068034,0.995844,0
28201,-0.1570309,0.8961497,9.367228,-0.0263,-0.2801,-0.6576,-0.0128,1.1529,9.7386,-0.16898277,-0.052237704,0.06429793,0.057945,-0.003478,-0.066787,0.996077,0
28240,-0.44076297,0.87494665,9.49436,-0.4432,-0.23609999,-0.204,0.0019,1.0892999,9.7459,-0.10958923,0.046582837,0.13939945,0.055498,-0.003754,-0.065631,0.996292,0
28280,0.18350118,1.2116863,9.106835,-0.0525,0.1356,-0.6594,-0.0062,1.0509,9.7501,-0.13861404,0.024190264,0.12566371,0.053154,-0.00299,-0.062089,0.996649,0
28320,0.097769625,1.0003549,9.870269,0.137,0.055999998,-0.1162,-0.019299999,0.99329996,9.7561,-0.2162812,0.12487831,0.12274901,0.049627,-0.001454,-0.059793,0.996975,0
28361,0.26502857,0.92986006,10.078871,0.292,0.0074,0.2881,-0.0665,0.91429996,9.7637,-0.09407324,0.1415811,0.2048842,0.046127,0.001504,-0.056593,0.99733,0
28400,0.043766007,1.1063415,10.005503,0.3101,0.1149,0.4231,-0.114,0.8853,9.7659,0.14156365,0.14173819,0.2841745,0.045791,0.003987,-0.052047,0.997586,0
28440,0.4198185,1.7303278,9.195611,0.46769997,0.64599997,-0.5809,-0.1539,0.94259995,9.76,0.17111208,0.042952552,0.2846981,0.049446,0.005768,-0.045951,0.997702,0
28480,0.44461283,1.8325411,9.644141,0.6059,0.791,-0.14119999,-0.1617,1.0095999,9.753099,0.14191271,0.06921976,0.22242476,0.052541,0.006269,-0.040701,0.997769,0
28520,0.52414817,1.9157541,9.470868,0.5902,0.83199996,-0.077,-0.1783,1.0704,9.7464,0.18584266,0.058468528,0.15414748,0.055945,0.007299,-0.036527,0.997738,0
28561,0.52304685,1.7481791,9.599982,0.66639996,0.68039995,-0.3931,-0.19559999,1.1337,9.7389,-0.041015238,0.10035643,0.09819222,0.05836,0.008386,-0.033885,0.997685,0
28600,0.44087785,1.6159809,9.993943,0.66899997,0.48479998,0.4594,-0.2277,1.1234,9.7394,-0.03354523,0.009389872,0.071733035,0.057724,0.009764,-0.032388,0.997759,0
28640,0.030808588,1.4663241,11.157057,0.48839998,0.4321,1.0069,-0.23339999,1.1075,9.741099,0.003944444,-0.051766466,0.059986968,0.056594,0.010125,-0.030631,0.997875,0
28680,0.16518077,1.5141314,11.007429,0.295,0.3572,1.3514,-0.2175,1.1072,9.7415,0.243072,-0.049008846,0.08822639,0.057673,0.008854,-0.029614,0.997856,0
28720,-0.6773963,1.3264549,10.114344,-0.4335,0.11889999,0.36319998,-0.2043,1.2105,9.7295,0.10847221,-0.055414204,0.033161256,0.062835,0.00861,-0.028731,0.997573,0
28761,0.05534437,1.0751115,10.515296,0.095199995,-0.0955,0.6116,-0.18339999,1.2527,9.7245,0.054471727,-0.027680922,0.110025555,0.064451,0.007263,-0.027509,0.997515,0
28800,0.14743493,0.66740763,9.856393,0.48099998,-0.5098,0.6056,-0.1672,1.2846,9.720699,0.22830652,0.09576622,0.05300565,0.066766,0.007063,-0.025637,0.997414,0
28840,-0.51454264,0.3975141,8.3907385,-0.1832,-0.9184,-0.94009995,-0.1894,1.3793,9.7073,0.2942625,-0.08435176,0.001692969,0.072287,0.007736,-0.024967,0.997041,0
28880,-0.63540196,0.35707122,8.68897,-0.4244,-1.2135999,-1.2301999,-0.1541,1.4784,9.693299,0.019844394,-0.07244862,0.06665412,0.076175,0.005444,-0.025052,0.996764,0
28920,-0.084572785,0.83209044,8.895925,0.045399997,-0.7593,-0.8961,-0.1239,1.485,9.692699,-0.0816465,-0.057176985,-0.007086037,0.075765,0.004256,-0.02377,0.996833,0
28960,-0.86186475,0.8196406,9.1100235,-0.7493,-0.63589996,-0.588,-0.0997,1.4549999,9.6975,-0.085241884,-0.0999201,-0.045989424,0.074226,0.002975,-0.024621,0.996933,0
29000,-0.35628596,0.6725696,9.627641,-0.46649998,-0.6961,-0.44669998,-0.072799996,1.412,9.7041,-0.35234708,0.0259705,-0.008342674,0.070883,0.00191,-0.025107,0.997166,0
29041,-0.23240037,0.5423729,10.7196455,-0.2863,-0.7793,0.7412,-0.0863,1.2795,9.7224,-0.2181138,0.04017748,0.04579744,0.063833,0.003173,-0.025154,0.997638,0
29080,0.4096862,1.2853224,9.869695,0.4405,-0.2253,0.6044,-0.0972,1.206,9.7317,0.14645058,0.014660765,0.06218608,0.0621,0.003404,-0.023986,0.997775,0
29120,0.21105367,1.9284146,8.195199,0.5033,0.54429996,-1.0655,-0.1012,1.26,9.7248,0.1044405,0.012060225,-0.038240165,0.06527,0.003833,-0.023242,0.997589,0
29160,-0.16187677,1.7083491,8.153397,-0.0603,0.527,-1.8955,-0.1063,1.2871,9.7212,-0.230558,-0.029373892,-0.09258971,0.065881,0.003846,-0.02406,0.997529,0
29200,-0.21663694,1.3214078,9.525983,-0.2629,0.1636,-0.4554,-0.0998,1.1994,9.7325,-0.2237512,-0.01701696,-0.1211084,0.060095,0.003444,-0.026569,0.997833,0
29241,-0.40582675,1.1519175,9.82363,-0.234,0.054899998,-0.012399999,-0.0994,1.1316,9.7406,-0.15463617,0.07696902,-0.06445501,0.056973,0.003702,-0.028306,0.997967,0
29280,-0.03373909,1.9349364,9.542158,0.036599997,0.62909997,0.109299995,-0.1347,1.0770999,9.7463,0.13088223,0.061505403,0.001169371,0.055627,0.005649,-0.028858,0.998018,0
29320,0.17522684,2.3718016,9.013537,0.31039998,1.1816,-0.7101,-0.15349999,1.1129999,9.742,0.064175755,0.02555162,-0.03642502,0.057047,0.006197,-0.028867,0.997934,0
29360,-0.007690176,2.136289,9.939624,0.2579,1.1142,-0.0028,-0.1697,1.1215999,9.7408,0.018762289,0.029059732,-0.074787356,0.057428,0.007073,-0.030538,0.997857,0
29400,-0.22354183,1.9799283,9.783025,0.035,0.875,0.1559,-0.1821,1.1352999,9.738999,0.1651256,-0.01452114,-0.037943456,0.058933,0.007441,-0.031733,0.997729,0
29441,-0.5011639,1.9623356,9.63127,-0.1812,0.7176,-0.2096,-0.18159999,1.1946,9.7319,0.10180505,-0.004956735,0.015097098,0.061902,0.007359,-0.032188,0.997535,0
