time(ms),acc.x,acc.y,acc.z,acclinear.x,acclinear.y,acclinear.z,gravity.x,gravity.y,gravity.z,gyroscope.x,gyroscope.y,gyroscope.z,RV.x,RV.y,RV.z,RV.cos,RV.heading
0,-6.681815,6.936232,-0.62860245,0.0991,-0.1068,0.6397,-6.9441,6.8929996,-0.65929997,0.1462586,-0.26394615,3.49E-04,0.69692,-0.218907,-0.606579,0.313754,0
40,-7.154219,6.9108634,-0.19109559,-0.368,-0.055499997,0.62689996,-6.9673,6.8809,-0.5288,0.041556288,-0.4271519,0.17591174,0.690771,-0.223156,-0.614227,0.309452,0
81,-6.8389125,7.1443844,-1.2977531,-0.0118,0.204,-0.90459996,-6.9213996,6.9350996,-0.4094,-0.34847245,-0.09599311,0.36360446,0.684663,-0.228276,-0.618828,0.310124,0
120,-6.488459,7.312007,1.0444179,0.5852,0.22909999,0.9684,-6.832,7.0277,-0.32119998,-0.22649138,0.44266784,0.15941837,0.681636,-0.227482,-0.617673,0.319535,0
160,-6.194633,6.778416,0.12592544,0.7567,-0.2216,0.8257,-6.7976,7.0568,-0.4041,0.5699373,-0.15023795,-0.24370033,0.685301,-0.225757,-0.612251,0.323332,0
200,-7.0107975,6.7244697,-0.022629995,0.0788,-0.2276,0.4235,-6.8747997,6.9746,-0.5118,0.77464694,-0.54166293,-0.37103954,0.687642,-0.230748,-0.614119,0.311062,0
240,-7.289195,6.82834,-1.2031916,-0.4373,-0.051599998,-0.53459996,-6.9764,6.8672,-0.5833,0.4151964,-0.1831374,-0.07681194,0.687792,-0.238081,-0.619186,0.294732,0
280,-7.683175,6.8524637,-0.56859416,-0.60899997,0.0177,0.2049,-6.9811997,6.8567,-0.6462,0.1624378,0.14217453,0.2918016,0.688319,-0.24324399,-0.619271,0.289052,0
320,-7.193532,6.715228,-1.6366092,-0.4301,-0.1095,-0.95059997,-6.8855996,6.9448,-0.7263,-0.1067967,0.09855874,0.3879518,0.689423,-0.24845,-0.614505,0.292147,0
360,-6.6013026,6.97656,-0.35294363,0.0637,-0.1148,0.1334,-6.7812996,7.0481,-0.71199995,0.08250172,-0.26771605,0.28527406,0.687489,-0.252311,-0.612287,0.297997,0
401,-6.470579,7.3827033,-0.85115784,0.3791,0.044,-0.0514,-6.7142,7.1148,-0.68399996,0.15573573,-0.13823007,0.1314233,0.684,-0.258882,-0.613351,0.298201,0
440,-5.6238647,7.416682,-0.94075847,0.88339996,0.25509998,-0.2722,-6.6889,7.139,-0.67899996,0.003560472,-0.05333726,-0.022130774,0.68244797,-0.262459,-0.614039,0.297212,0
480,-5.9235706,7.3506684,-0.7070557,1.0313,0.27339998,-0.32999998,-6.7093,7.1207,-0.6702,-0.18097319,0.16500343,-0.2673146,0.682737,-0.260851,-0.614512,0.296985,0
520,-7.060453,7.216469,-0.29483157,0.022599999,0.085499994,0.2726,-6.7794,7.0537,-0.67469996,-0.083182395,0.26677358,-0.23396139,0.685419,-0.254172,-0.614381,0.29687,0
560,-5.7803307,6.8744426,-0.6422973,0.4254,-0.04,0.2268,-6.8094997,7.0223,-0.6975,-0.030927233,0.2814867,-0.29708993,0.687365,-0.251181,-0.613524,0.296688,0
600,-7.8529434,6.2827587,-0.58080465,-1.0647,-0.50409997,0.3681,-6.9375,6.8882,-0.77019995,0.19113101,-0.064664446,-0.103934355,0.692834,-0.243413,-0.612965,0.291555,0
640,-7.2664404,6.4736056,-1.2631999,-0.338,-0.49769998,-0.42049998,-6.9581,6.8622,-0.81509995,0.020856684,0.119973935,0.040648717,0.694146,-0.244378,-0.612603,0.288368,0
681,-6.652414,6.8364034,-0.7291972,0.087299995,-0.1862,0.0256,-6.9322996,6.8841,-0.8494,-0.03487168,0.17277014,0.17769197,0.695301,-0.24467,-0.610396,0.290015,0
720,-6.024434,7.743672,-0.6756916,0.8312,0.26819998,-0.0348,-6.8819,6.9297,-0.88689995,0.088296205,0.045727625,0.05984734,0.696177,-0.246088,-0.607504,0.292772,0
760,-5.8536124,7.195649,-1.1319115,0.91419995,0.28919998,-0.14299999,-6.8571,6.948,-0.9356,0.04335398,0.2135934,-0.058660515,0.697393,-0.247687,-0.605365,0.292961,0
800,-7.035285,6.912788,-0.004357447,0.1876,0.023599999,0.9289,-6.8757997,6.9193997,-1.0073999,0.2822721,0.07843509,-0.17481218,0.700687,-0.245765,-0.602767,0.292075,0
840,-6.061429,6.9055576,-1.1103733,0.8466,0.4025,0.2855,-6.9168997,6.8641996,-1.0995,0.6274459,-0.41259584,-0.2904228,0.703124,-0.248348,-0.602243,0.28503,0
880,-6.9530587,6.7316813,-0.98804873,0.3287,0.1125,0.34469998,-7.0168996,6.752,-1.1586,0.5803045,-0.28150415,-0.379836,0.703297,-0.253869,-0.606376,0.270611,0
921,-6.7948976,6.8580375,-0.9636662,0.4583,0.22369999,0.073,-7.1267996,6.6211996,-1.24,0.2933724,0.17407914,-0.42551127,0.705389,-0.256223,-0.608663,0.257497,0
960,-7.5984206,6.390383,-0.8525082,-0.4569,-0.0569,0.47469997,-7.2216,6.4901,-1.3769,0.443174,-0.008517207,-0.33999014,0.711359,-0.25332,-0.606362,0.249241,0
1000,-7.3703585,6.496858,-1.4899693,0.2647,0.0858,0.1328,-7.3156996,6.3571,-1.4958999,0.73860586,-0.31330407,-0.46804494,0.715134,-0.254667,-0.606113,0.237388,0
1040,-7.8311753,6.599952,-1.6774255,0.098799996,0.13069999,-0.43519998,-7.4537997,6.1748,-1.5751,0.6296973,-0.3789808,-0.4571541,0.716555,-0.258568,-0.609548,0.219413,0
1080,-8.263942,5.9500127,-2.6107428,-0.3636,0.0557,-0.93829995,-7.5797,6.0046997,-1.6308999,0.29457667,-0.06405358,-0.29653144,0.717779,-0.26067,-0.612528,0.204086,0
1121,-7.718676,5.6524324,-2.242553,-0.0222,-0.2386,-0.7653,-7.6274996,5.9319997,-1.6736,-0.03520329,0.10889109,-0.20245819,0.720142,-0.259565,-0.612137,0.198264,0
1160,-7.813305,5.5099964,-2.0942562,-0.092199996,-0.221,-0.1012,-7.6647,5.8697,-1.7227,0.14596188,-0.018081611,-0.041626103,0.722212,-0.257381,-0.611164,0.196575,0
1200,-6.983149,6.0062666,-1.7389374,0.8502,0.33269998,0.1347,-7.6755996,5.8552,-1.7234,0.04626868,-0.047368236,-0.12257447,0.72191,-0.258294,-0.611751,0.194653,0
1240,-7.8608155,5.7718935,-1.6279709,0.3223,-0.040799998,-0.1011,-7.7165,5.8071,-1.7032,0.18292795,-0.4299444,-0.2433338,0.721518,-0.257394,-0.613595,0.191469,0
1281,-7.999756,5.4942236,-1.9181386,0.1935,0.2566,0.1015,-7.8132,5.7058,-1.6019,0.21868975,-0.35088098,-0.41894883,0.717886,-0.257519,-0.620446,0.182674,0
1320,-7.9156327,5.347306,-1.7657429,-0.5839,-0.3311,-0.116399996,-7.9084997,5.5875,-1.5505999,0.13346533,-0.02008874,-0.021746803,0.716444,-0.256458,-0.625059,0.173888,0
1360,-8.080498,5.318288,-1.4843189,0.0572,-0.21859999,0.13669999,-7.9220996,5.5632,-1.5683999,0.16666149,-0.2623579,-0.08703957,0.71664,-0.257676,-0.625123,0.171028,0
1400,-7.7827263,5.5007744,-1.6678776,0.204,-0.1092,-0.0685,-7.9512,5.5323,-1.5299,0.100653134,0.011641346,-0.004921828,0.714525,-0.259724,-0.627905,0.166527,0
1440,-7.8384347,5.4774356,-1.5892806,0.0861,-0.0142,-0.0142,-7.9511,5.5256,-1.5547,0.15132004,-0.045151666,0.017627826,0.714921,-0.261072,-0.627299,0.164994,0
1480,-7.9028287,5.4847426,-1.521429,0.0127,-0.0444,0.1347,-7.9463,5.5263,-1.5762999,0.07557276,-0.012566371,0.060021874,0.714909,-0.263202,-0.626855,0.163343,0
1521,-7.8064,5.6225433,-1.6447878,0.117699996,0.03,0.0718,-7.9336,5.5401,-1.5918,-0.005986479,0.09934414,0.060283672,0.714895,-0.264735,-0.626261,0.163205,0
1560,-7.852206,5.658715,-1.6664792,0.15969999,0.1303,0.0951,-7.9168,5.5573997,-1.6151999,0.002408554,0.011711159,0.03361504,0.715553,-0.265211,-0.625011,0.164337,0
1600,-7.639189,5.5777144,-1.5872312,0.2285,0.030499998,-0.0051,-7.9070997,5.569,-1.6227,-0.07021459,0.08646361,0.017366026,0.715769,-0.265347,-0.624482,0.165187,0
1640,-7.8959527,5.522255,-1.6472682,0.0436,-0.0762,0.0055,-7.8986998,5.5778,-1.6334,-0.07632325,0.124441974,0.01633628,0.716501,-0.264404,-0.623617,0.166785,0
1680,-7.807865,5.593602,-1.6386874,0.0585,-0.0396,0.0327,-7.8841996,5.5902,-1.6606,-0.053075463,0.08576548,0.03286455,0.717885,-0.263269,-0.62192,0.168953,0
1721,-7.797781,5.5863714,-1.7129842,0.0266,0.0057,-0.0131,-7.8718996,5.6036997,-1.6735,-0.044977136,0.076515235,0.05529203,0.718479,-0.262898,-0.620986,0.170433,0
1760,-7.586488,5.7526727,-1.7994341,0.3613,0.1129,-0.0733,-7.8536,5.6239,-1.6918,-0.0538085,0.09087929,-0.006283185,0.719188,-0.262727,-0.619718,0.172311,0
1800,-8.011631,5.598611,-1.7188262,-0.2139,-0.0383,-0.0079,-7.8471,5.6281,-1.7081,-0.09721484,0.14693926,0.057526052,0.720164,-0.26164,-0.618658,0.173692,0
1840,-7.6240287,5.730522,-1.7860361,0.23339999,0.0449,0.037,-7.8237996,5.6527,-1.7335,-0.05729916,0.09370673,0.012339477,0.721384,-0.260753,-0.616793,0.176572,0
1880,-7.8916907,5.5980554,-1.8983529,-0.06,-0.012,-0.20289999,-7.8146,5.6607,-1.7485,-0.09604547,0.14695673,0.056286868,0.722189,-0.259986,-0.615774,0.177962,0
1920,-7.4457374,5.741803,-1.991679,0.4341,0.019,-0.23799999,-7.7890997,5.6884,-1.7723,-0.11964232,0.1248434,0.02443461,0.723315,-0.259189,-0.613903,0.180991,0
1961,-7.6962094,5.7173533,-1.7181079,-0.0052,-0.0219,-0.0034,-7.7713,5.7098,-1.7813,-0.14091788,0.091664694,0.07012733,0.724215,-0.25755998,-0.612597,0.184117,0
2000,-7.644676,5.7821217,-1.8543667,0.1916,0.0017,0.1248,-7.7524996,5.7351,-1.7822,-0.066566855,0.09684832,0.024836035,0.724543,-0.25672,-0.611742,0.18682499,0
2040,-7.522323,5.9579706,-1.6884964,0.19,0.1442,-0.0094,-7.7411,5.7495,-1.7851,-0.1437104,0.09004153,0.02263692,0.72496897,-0.255808,-0.611025,0.188755,0
2080,-7.4974713,5.9195967,-1.5122353,0.1969,0.1665,0.2852,-7.7283998,5.7664,-1.7856,-0.064332835,0.06471681,0.014294246,0.725608,-0.254041,-0.610124,0.19158,0
2121,-7.587522,5.8095403,-1.7667389,0.21169999,0.0346,0.0663,-7.7236,5.7707996,-1.7923,-0.012950343,0.033789575,-0.04447099,0.726139,-0.253194,-0.6095,0.192675,0
2160,-7.9064107,5.7186365,-1.7647661,-0.048899997,-0.037299998,-0.0088,-7.7276998,5.7644,-1.7954999,0.001256637,-0.009075712,-0.031503193,0.726407,-0.252745,-0.609402,0.192563,0
2200,-7.7271233,5.712278,-1.8012825,0.050899997,-0.0426,0.0661,-7.7295,5.7598996,-1.8018999,-0.002321288,0.012514011,0.004956735,0.726839,-0.252148,-0.609075,0.192748,0
2241,-7.4258947,5.872048,-1.8083501,0.24229999,0.0704,-0.0554,-7.7247996,5.7644,-1.8077999,-0.038659044,0.037978366,0.009529498,0.727054,-0.252119,-0.608699,0.193163,0
2280,-7.578031,5.850069,-1.8138376,0.2007,0.0985,0.1072,-7.7223997,5.7658,-1.8134999,0.0230558,0.016772615,-0.042324234,0.727412,-0.251672,-0.608292,0.193681,0
2320,-7.6893044,5.668397,-1.8667878,0.1426,-0.0336,-0.066599995,-7.7328997,5.7509,-1.8161999,-0.013491395,0.00424115,-0.04447099,0.727636,-0.251294,-0.608449,0.192837,0
2360,-7.6865177,5.6467915,-1.7729158,-0.0188,-0.1344,0.099999994,-7.7381997,5.7437997,-1.8161,0.035657078,-0.03600614,0.009599311,0.727789,-0.250841,-0.608509,0.19265799,0
2400,-7.6658792,5.6805882,-1.9907787,0.1096,-0.114199996,-0.098699994,-7.7391996,5.7432,-1.8134999,0.040927973,-0.06977826,0.001762783,0.72743,-0.251611,-0.608842,0.191955,0
2440,-7.6059384,5.8007774,-2.0078063,0.13239999,0.0224,-0.2512,-7.7423,5.7437997,-1.7982999,-0.054209925,-0.06462954,0.010646508,0.726688,-0.252216,-0.609652,0.191403,0
2481,-7.5657444,5.781135,-1.4445463,0.1327,0.012999999,0.2956,-7.7426996,5.7532,-1.7666,-0.028082348,-0.039776053,0.020804325,0.725661,-0.251967,-0.610737,0.192165,0
2520,-7.5579777,5.8336253,-1.8576037,0.2615,0.067499995,-0.0578,-7.744,5.7574997,-1.7465,0.041346848,-0.15584044,-0.035639625,0.724834,-0.252319,-0.611596,0.192093,0
2560,-7.818974,5.743527,-1.6175419,-0.0383,-0.0019,0.115399994,-7.7578998,5.7486,-1.7139,-0.03440044,0.001256637,0.010297443,0.72355,-0.252707,-0.613336,0.190871,0
2600,-7.842179,5.738652,-1.6836219,-0.0185,-0.024699999,0.064899996,-7.7581,5.7518,-1.7026,0.007731808,-0.050911255,-0.005550147,0.723192,-0.252591,-0.613718,0.191153,0
2640,-7.7377725,5.669728,-1.5107414,-0.059,-0.0682,0.114599995,-7.7567997,5.7560997,-1.6933999,-0.034103733,0.046146505,0.06421066,0.72280097,-0.252788,-0.614059,0.191276,0
2680,-7.7432504,5.713791,-1.5416744,0.012399999,-0.0782,0.2121,-7.7401,5.7759,-1.7026999,0.050981067,-0.016493361,0.04087561,0.722961,-0.253261,-0.613295,0.192496,0
2721,-7.5190864,5.9193287,-1.8132151,0.099199995,0.0466,-0.063,-7.7288,5.7883,-1.7119,-9.25E-04,0.06469935,0.07079055,0.722852,-0.254499,-0.612915,0.192481,0
2760,-7.2797136,5.9440465,-1.8395514,0.433,0.15429999,-0.092099994,-7.7095,5.808,-1.7318,-0.023614304,0.051609386,-0.002652901,0.723359,-0.255052,-0.611703,0.193697,0
2800,-7.619461,5.8785024,-2.0553932,0.2307,0.1011,-0.2956,-7.7131996,5.8023996,-1.7342999,-0.03885103,-0.039008107,-0.08274606,0.723694,-0.25435,-0.611546,0.193862,0
2840,-7.654483,5.77673,-1.7235092,-0.0874,-0.0508,-0.108399995,-7.7283998,5.7876997,-1.7156,-0.12486085,0.034836773,-0.001972222,0.723566,-0.252829,-0.612325,0.19387,0
2880,-7.614768,5.732131,-1.5797325,0.2782,-0.0526,0.1864,-7.7313,5.7893996,-1.6966,-0.008342674,-0.068190016,-0.06290167,0.723439,-0.251278,-0.612687,0.195215,0
2921,-7.7441797,5.657556,-1.5349993,-0.0691,-0.1366,0.0949,-7.7467,5.7755,-1.6738,-0.061837014,0.030578168,0.011309734,0.722889,-0.250544,-0.61383,0.194604,0
2960,-7.8826694,5.6986217,-1.3910791,-0.0824,-0.1034,0.3454,-7.7432,5.7813997,-1.6693,0.042533673,-0.007452556,0.023596851,0.722919,-0.250001,-0.613727,0.195512,0
3000,-7.645069,5.8530383,-1.8299747,0.0073,0.0157,-0.1352,-7.7349,5.7897997,-1.6789999,0.007470009,0.03010693,0.06283186,0.722927,-0.250963,-0.613358,0.19541,0
3040,-7.467802,5.9293075,-1.6373945,0.2461,0.095,0.060599998,-7.7187,5.8085,-1.6884999,0.004328417,0.03853687,0.049706977,0.723004,-0.251706,-0.612671,0.196322,0
3080,-7.360188,5.930016,-1.81899,0.361,0.120699994,-0.104899995,-7.7061996,5.822,-1.6995,-0.017505653,0.060196407,0.006195919,0.723181,-0.252307,-0.612015,0.196942,0
3120,-7.5763745,5.8432317,-1.7276847,0.1187,-0.0012,-3.00E-04,-7.7012997,5.8251,-1.7109,-0.037315138,0.06223844,9.95E-04,0.72393,-0.25181,-0.611057,0.197801,0
3160,-7.540289,5.8110056,-1.6811702,0.1759,-0.0021,0.0925,-7.6976,5.8272,-1.7204,-0.007906342,0.039077923,-0.033772122,0.724207,-0.251482,-0.610744,0.19817,0
3201,-7.8206315,5.696668,-1.8143069,-0.069,-0.0947,-0.057499997,-7.7075996,5.812,-1.7271999,-0.0400204,0.071331605,-0.005602507,0.724811,-0.250429,-0.610553,0.197885,0
3240,-7.5272074,5.7711563,-1.6632998,0.102199994,-0.0884,0.081099994,-7.7023997,5.8155,-1.7384,-0.01288053,0.02459169,0.011379547,0.725466,-0.249667,-0.609767,0.198866,0
3280,-7.582839,5.8374567,-1.7546434,0.0902,-0.012499999,-0.0056,-7.7001996,5.818,-1.7399,-0.020786872,0.015009832,0.010506882,0.725559,-0.249552,-0.609605,0.199169,0
3320,-7.455142,5.9066105,-1.622742,0.29279998,0.0801,0.0694,-7.6967998,5.8234,-1.7365999,-0.006475172,-0.019949114,-3.67E-04,0.725489,-0.249415,-0.609572,0.199697,0
3360,-7.5844383,5.847962,-1.6853744,0.1267,0.010799999,0.084199995,-7.6974998,5.824,-1.7318,0.03827507,-0.003159046,0.015969763,0.725271,-0.249557,-0.609805,0.199598,0
3400,-7.5603623,5.8936915,-1.8831067,0.1812,0.046699997,-0.084,-7.6931,5.8273997,-1.7399,0.03333579,-0.006248279,0.017086774,0.725266,-0.250407,-0.609595,0.199195,0
3441,-7.5471463,5.9832344,-1.8555063,0.1387,0.121599995,-0.1407,-7.6899,5.8308997,-1.7421,-0.02008874,0.010437069,0.022881266,0.725168,-0.25091,-0.609547,0.199065,0
3480,-7.396963,6.006918,-1.6952959,0.2006,0.1423,0.055999998,-7.6830997,5.8396,-1.7427,-0.01850049,0.0437205,0.015166911,0.725183,-0.250931,-0.609299,0.199742,0
3520,-7.5297837,5.8866525,-1.7606575,0.2552,0.0806,-0.0032,-7.6787996,5.8424997,-1.7521,0.015254177,-0.016528267,-0.02713987,0.72561,-0.250646,-0.608737,0.200258,0
3560,-7.6902523,5.8185515,-1.9724774,0.0054,-6.00E-04,-0.1894,-7.684,5.8356,-1.7522,-0.03413864,0.021624628,-0.00158825,0.725633,-0.25059,-0.608898,0.199758,0
3600,-7.547807,5.8336163,-1.6935433,0.1511,-0.0032,0.063099995,-7.6826,5.8381996,-1.7498,-0.028064894,0.003909538,-0.017488198,0.725743,-0.250029,-0.608781,0.200418,0
3640,-7.673359,5.782792,-1.8388426,0.047199998,-0.0284,-0.146,-7.6865997,5.8339996,-1.7465999,-0.056321774,0.006021386,-0.024399703,0.725864,-0.249348,-0.608842,0.20064,0
3680,-7.664137,5.6931624,-1.5009059,-0.03,-0.1564,0.18069999,-7.6877,5.8343997,-1.74,-0.06279694,0.038624138,0.022497294,0.726008,-0.248249,-0.608815,0.201562,0
3721,-7.7277937,5.7798133,-1.7515117,-0.0054,-0.055999998,0.049399998,-7.6829,5.8419,-1.7362,0.016929694,-0.02242748,0.018517943,0.725988,-0.247917,-0.608692,0.202413,0
3760,-7.5748425,5.82584,-1.7278571,0.0557,-0.0655,-0.0184,-7.6755,5.8514,-1.7369,-0.011135201,0.037297685,0.06436774,0.72583,-0.248453,-0.608558,0.202725,0
3800,-7.588777,5.894582,-1.9445707,0.089099996,-0.0058,-0.15969999,-7.6597996,5.8701997,-1.7427,5.59E-04,-0.032585297,0.055169858,0.725788,-0.249168,-0.608009,0.20364399,0
3840,-7.438947,5.976732,-1.7601022,0.17469999,0.0826,-0.0625,-7.6474,5.8896,-1.732,-0.035046212,-0.008936086,0.08002335,0.725097,-0.250083,-0.608216,0.20436,0
3880,-7.367801,5.8979144,-1.749041,0.2744,-0.0314,0.0268,-7.6294,5.9154,-1.7234,-0.044383723,0.036966074,0.046286132,0.724582,-0.2507,-0.608073,0.205855,0
3920,-7.5681,5.902416,-1.6228856,0.1078,-0.045199998,0.13,-7.6197,5.9291997,-1.7185999,0.020053834,-0.025377087,0.005916666,0.724389,-0.250774,-0.607928,0.20687,0
3961,-7.543431,5.881184,-1.7788918,0.0589,-0.0651,-0.0674,-7.6197996,5.9294,-1.7172999,0.011641346,-0.005899213,0.006719518,0.724197,-0.251196,-0.608098,0.206529,0
4000,-7.6587543,5.8858576,-1.8146135,-0.02,-0.095,-0.0964,-7.6193,5.93,-1.7177,-0.002007129,-0.01308997,0.005462881,0.724145,-0.251383,-0.608122,0.206415,0
4040,-7.5857315,5.833099,-1.8492814,-0.0209,-0.058599997,-0.072399996,-7.6183996,5.9326997,-1.7123,0.012444197,-0.021799162,0.023404865,0.723895,-0.251558,-0.60833,0.206463,0
4080,-7.816963,5.7018967,-1.7155509,-0.15259999,-0.2322,-0.048499998,-7.6141996,5.9396996,-1.7068,-0.005078908,-0.017104227,0.037070792,0.723533,-0.252039,-0.60852,0.206586,0
4120,-7.6807814,5.7492537,-1.7008218,-0.1293,-0.23179999,0.0736,-7.6081,5.9491,-1.7014999,0.030159289,-0.024766222,0.06700319,0.72317,-0.252546,-0.608642,0.206879,0
4161,-7.4921083,5.794035,-1.6128683,0.0357,-0.23799999,0.0681,-7.5867996,5.9749,-1.7057999,0.043319073,0.015184364,0.08625417,0.722748,-0.254187,-0.608218,0.207593,0
4200,-7.5359225,5.8889413,-2.0231388,0.0832,-0.102199994,-0.206,-7.5656,5.996,-1.7257999,0.08602728,-0.024609143,0.055257123,0.722715,-0.256275,-0.607366,0.207632,0
4240,-7.5167494,5.9551744,-2.0262704,0.0327,-0.103099994,-0.3218,-7.5544,6.0067,-1.7375,0.006544985,0.003752458,0.04003785,0.72257197,-0.257831,-0.607008,0.207249,0
4280,-7.4771876,5.936289,-1.9022508,0.0726,-0.0749,-0.21239999,-7.5453,6.0178,-1.739,-0.026092673,4.19E-04,0.017243853,0.722432,-0.258377,-0.606793,0.207688,0
4320,-7.427369,5.83442,-1.7274643,0.17729999,-0.1778,0.01,-7.5421,6.0225997,-1.736,0.026912976,-0.02734931,-0.02734931,0.722332,-0.258359,-0.606787,0.208076,0
4360,-7.417189,5.7006707,-1.8027763,0.1282,-0.31309998,-0.1384,-7.5518,6.0108,-1.7346,0.005689773,-0.040090214,-0.05066691,0.722295,-0.258323,-0.607163,0.20715,0
4400,-7.482053,5.588852,-1.5069872,0.1136,-0.4535,0.28579998,-7.5666,5.9941998,-1.7274,0.019320795,-0.007504916,-0.047438048,0.722231,-0.257795,-0.607778,0.206223,0
4441,-7.968181,5.534111,-1.8256363,-0.1673,-0.39859998,0.0077,-7.5797997,5.9786,-1.7239,-0.030333823,-0.07202974,-0.07623598,0.72226,-0.257362,-0.608236,0.205309,0
4480,-8.669989,5.8411436,-1.1740878,-1.2011,-0.3195,0.47559997,-7.5952997,5.9681,-1.6916,-0.078173295,0.029932396,0.159558,0.721463,-0.256396,-0.609657,0.205107,0
4520,-7.1446333,6.3269076,-1.6006771,0.2665,0.2706,0.1104,-7.5529,6.0250998,-1.6795,-0.036774088,-0.031503193,0.16837192,0.720452,-0.25803,-0.609099,0.208248,0
4560,-6.883483,6.2998724,-1.5815521,0.6342,0.2434,0.1156,-7.5185,6.0719,-1.6651,-0.025464354,0.030438542,0.010995574,0.719324,-0.259749,-0.608927,0.210498,0
4600,-7.494857,5.8790674,-1.7918589,0.1707,-0.1114,-0.13319999,-7.5256996,6.0639997,-1.6613,-0.04988151,-0.0540703,-0.15528195,0.719476,-0.258961,-0.609081,0.21050599,0
4640,-7.8511715,5.4164886,-1.4717542,-0.1819,-0.5101,0.0673,-7.5653,6.0214,-1.6364,-0.12027064,0.047158796,-0.15470599,0.719642,-0.256023,-0.610499,0.20942,0
4680,-8.197795,5.1964326,-1.3340684,-0.59139997,-0.7981,0.3349,-7.5971,5.9858,-1.6195999,-0.01155408,-0.024207717,-0.045396015,0.720231,-0.252679,-0.611237,0.209306,0
4721,-7.840264,5.295227,-1.6804711,-0.2408,-0.67329997,-0.0949,-7.6043997,5.9786997,-1.6114,-0.009773844,0.006946411,0.05290093,0.720076,-0.252286,-0.611677,0.209024,0
4760,-7.6569543,5.5535903,-1.6684233,-0.1405,-0.52779996,-0.0133,-7.587,5.9999,-1.6146,0.032794736,-0.011711159,0.11213741,0.719861,-0.253222,-0.611225,0.209954,0
4800,-7.281495,5.6776867,-1.939447,0.227,-0.42029998,-0.32259998,-7.5624,6.0297,-1.619,-0.010960667,-0.0312763,0.06354744,0.719344,-0.255133,-0.610764,0.210755,0
4840,-7.2338696,5.8947163,-1.5811117,0.2565,-0.1718,-0.0337,-7.5527,6.0459,-1.6039,-0.007976155,-0.088121675,0.029548423,0.718568,-0.255809,-0.611165,0.211417,0
4880,-7.1100802,5.853009,-1.3353899,0.50339997,-0.1866,0.19389999,-7.5544,6.0509,-1.5766,0.09642944,-0.18996164,-0.036233034,0.717316,-0.256605,-0.612444,0.211006,0
4920,-7.45315,5.6479506,-1.4624741,0.2513,-0.392,0.1237,-7.5769,6.0308,-1.5457,0.15646876,-0.17952457,-0.11889183,0.715672,-0.258115,-0.614783,0.207919,0
4961,-8.649619,5.464909,-1.3782845,-0.91179997,-0.4592,0.24579999,-7.6198997,5.9803,-1.5304999,0.2131745,-0.25291565,-0.1383348,0.714839,-0.258922,-0.617037,0.20305,0
5000,-8.62583,5.2879105,-1.5411955,-0.89479995,-0.62329996,-0.0107,-7.6663,5.9287,-1.4994,0.22034782,-0.28352875,-0.08539896,0.712973,-0.260995,-0.62030697,0.196897,0
5040,-8.894402,5.417408,-1.62935,-1.4984,-0.8429,-0.1236,-7.7001,5.8933,-1.4649999,0.06501351,-0.22053981,-0.008621926,0.710898,-0.26328298,-0.623303,0.191829,0
5080,-9.002198,5.4970202,-0.79307455,-1.3974999,-0.5999,0.5331,-7.7226,5.8759,-1.4157,0.04845034,-0.11426671,0.001762783,0.708743,-0.264321,-0.626115,0.189197,0
5121,-8.505047,5.6446276,-0.604421,-0.8951,-0.2862,0.8835,-7.7247996,5.876,-1.4031999,0.21436134,-0.04621632,0.079813905,0.707723,-0.265845,-0.627051,0.187776,0
5160,-7.54004,6.1169934,-0.9058223,-0.346,-0.1937,0.6292,-7.7149997,5.8816,-1.4333999,0.31155872,-0.05078908,-0.023527037,0.707678,-0.270093,-0.62615,0.184868,0
5200,-7.58983,5.782869,-1.2139273,0.19579999,-0.0245,0.3319,-7.7174997,5.8594,-1.5087,0.26001915,0.012391837,-0.07803367,0.708516,-0.27373,-0.624984,0.180197,0
5240,-7.906152,5.6999335,-1.9249957,2.00E-04,-0.099199995,-0.2144,-7.7377,5.8164997,-1.5703,0.1291369,-0.05900958,-0.15337953,0.71011597,-0.275314,-0.623722,0.175801,0
5281,-8.631222,5.711282,-1.8037342,-0.7963,-0.1347,-0.3524,-7.7844996,5.7539,-1.5696,-0.013473942,-0.16720255,-0.1107935,0.710447,-0.274399,-0.624927,0.171566,0
5320,-7.2903056,6.063823,-1.7535421,0.1915,0.2801,-0.296,-7.8113,5.7313,-1.5181999,-0.08206538,-0.16474162,0.002984513,0.708967,-0.273444,-0.627398,0.170187,0
5360,-6.7858477,5.8356366,-1.101237,0.94689995,0.1016,0.3888,-7.8213,5.7332997,-1.4577,0.012758357,-0.08609709,-0.037175514,0.707026,-0.272839,-0.629787,0.170414,0
5400,-6.9818177,5.726662,-1.4933498,1.0591,0.018199999,0.0713,-7.8452997,5.7088,-1.4246,0.10864674,-0.12885766,-0.10819296,0.705686,-0.273213,-0.631813,0.167848,0
5440,-7.4152546,5.6975775,-1.4838113,0.4639,0.0177,-0.2615,-7.8679,5.6798997,-1.4153,-0.085154615,-0.015114551,-0.07213446,0.705492,-0.272846,-0.632734,0.16578,0
5480,-8.21531,5.6298695,-1.1460565,-0.36229998,-0.0806,0.417,-7.8849998,5.6605997,-1.3975999,0.104492866,-0.026790803,0.026965337,0.705484,-0.271208,-0.633503,0.165562,0
5520,-7.8779006,5.6226106,-2.5402386,0.1092,0.0197,-0.88689995,-7.8760996,5.6679997,-1.4175999,0.054087754,0.058904864,0.11648327,0.705382,-0.27334,-0.633002,0.164402,0
5561,-7.6967072,5.6005836,-2.1680264,0.021599999,-0.0764,-1.0490999,-7.8374996,5.7152,-1.4416,-0.16873842,0.14273302,0.2168397,0.705577,-0.275075,-0.63139397,0.166838,0
5600,-7.3950377,5.166314,-1.17087,0.51989996,-0.5585,0.26049998,-7.7865996,5.7855,-1.4373,0.045396015,-0.014800392,0.11047934,0.705085,-0.275931,-0.630263,0.171709,0
5640,-7.5020876,5.3248577,-1.8618366,0.1409,-0.5408,-0.3136,-7.7605996,5.8167996,-1.4514999,0.022933627,0.037524577,0.14231415,0.704729,-0.278141,-0.629505,0.172383,0
5680,-7.7797956,5.153481,-1.1151234,0.1374,-0.70879996,0.1986,-7.7278,5.8573,-1.4636999,-0.08689994,0.15673056,0.09601056,0.704567,-0.279669,-0.628451,0.17441,0
5720,-7.9886465,5.2970085,-1.3597629,-0.3854,-0.6254,0.2913,-7.6952,5.8915997,-1.4975,0.0376293,0.18507472,0.11976449,0.705755,-0.279754,-0.626242,0.17739,0
5760,-7.3861027,5.4297433,-1.9729466,0.2958,-0.5178,-0.385,-7.6605997,5.9212,-1.5566,0.023736477,0.10845476,0.004956735,0.70738,-0.281038,-0.623328,0.179142,0
5800,-8.039605,5.2617464,-2.227278,-0.38869998,-0.6638,-0.5974,-7.6527,5.9200997,-1.5992,-0.041800637,0.17667969,0.019495327,0.709019,-0.280763,-0.621444,0.179636,0
5841,-7.587254,5.5697656,-2.0898604,0.0176,-0.4475,-0.5004,-7.6373997,5.9294,-1.6373,-0.04160865,0.048415434,-7.33E-04,0.710734,-0.27989,-0.619346,0.18146,0
5880,-7.8086214,5.694867,-2.047933,-0.1839,-0.21779999,-0.4265,-7.6319,5.9351,-1.6425999,-0.078574724,0.062133722,0.076096356,0.711142,-0.279333,-0.61884,0.182445,0
5920,-7.2778945,5.8142996,-1.5892136,0.4012,-0.1691,-0.1933,-7.6091,5.9648,-1.6405,-0.14648548,0.057543505,0.001361357,0.711177,-0.279051,-0.618141,0.18508899,0
5960,-8.180921,6.01344,-1.469494,-0.4601,-0.0137,0.1959,-7.6106997,5.9663,-1.6277,-0.042655848,0.07098254,-0.048904125,0.711482,-0.277098,-0.618152,0.186809,0
6000,-8.175365,6.1588926,-2.2994199,-0.5216,0.1953,-0.53499997,-7.6177998,5.9533,-1.642,-0.10698868,0.0633729,-0.103934355,0.712708,-0.275256,-0.617364,0.18746,0
6040,-8.605316,6.1101365,-2.177335,-0.91239995,0.1709,-0.7305,-7.6389,5.9287,-1.6328,-0.1523847,0.043703046,-0.11154399,0.713556,-0.272189,-0.617564,0.188055,0
6080,-8.16871,6.4347615,-1.8046248,-0.5581,0.4863,-0.36929998,-7.6597996,5.9076,-1.6115999,-0.003368486,-0.10817551,-0.025743606,0.713897,-0.269295,-0.61824,0.188705,0
6121,-7.5540895,6.5167203,-1.4671285,-0.2254,0.59959996,0.0488,-7.6688,5.9021,-1.5884,0.073216565,-0.14126694,0.028344147,0.71274,-0.269658,-0.61969,0.187801,0
6160,-7.129358,6.3201275,-0.97738975,0.6325,0.3653,0.6469,-7.6737,5.901,-1.5687,0.10321877,-0.015062192,-0.051330134,0.711646,-0.271189,-0.620752,0.186229,0
6200,-7.4682145,6.332453,-1.1494466,0.234,0.4385,0.466,-7.6871,5.8768997,-1.5938,0.06813765,0.104091436,-0.06396632,0.71238,-0.271617,-0.620363,0.184085,0
6240,-7.259995,6.1860614,-1.3660358,0.2902,0.3541,0.3602,-7.6942,5.8533998,-1.6448,0.06471681,0.17680185,-0.06897541,0.714453,-0.270964,-0.618544,0.183134,0
6280,-7.107341,6.0052133,-1.6379308,0.6319,0.2583,0.1285,-7.7025,5.8216996,-1.7171999,0.16770868,0.12358677,-0.115872405,0.717286,-0.270289,-0.615976,0.181704,0
6320,-7.3210764,5.722918,-1.5525153,0.3653,-0.096099995,0.2658,-7.7202997,5.7742,-1.7955999,0.052167892,0.14215706,-0.031555552,0.720111,-0.270172,-0.613633,0.178605,0
6361,-7.200054,5.928129,-1.6847615,0.6035,0.14479999,0.1469,-7.7132998,5.7685,-1.8434999,-0.12875293,0.1473407,0.031712633,0.722025,-0.269577,-0.611519,0.179028,0
6400,-7.393228,5.889152,-1.7537432,0.2775,0.088999994,0.1267,-7.6913,5.7949,-1.8527,-0.1385617,0.10114183,0.074298665,0.722971,-0.267908,-0.610078,0.182597,0
6440,-7.477743,5.5892925,-1.7271005,0.1797,-0.18169999,0.1361,-7.672,5.8206,-1.8521999,-0.059288833,0.031363565,0.04098033,0.723259,-0.267086,-0.609273,0.185326,0
6480,-7.4569902,5.3664975,-1.6393194,0.1987,-0.4613,0.2209,-7.6615996,5.8353,-1.8489,0.010594148,-0.014800392,0.047001716,0.723177,-0.266988,-0.609039,0.186557,0
6520,-7.301185,5.2949686,-1.4907545,0.3525,-0.5564,0.3297,-7.6485996,5.8519998,-1.8498,0.037297685,-6.28E-04,0.11515682,0.722826,-0.268023,-0.608858,0.18702,0
6560,-7.448237,5.4599195,-1.5468172,0.18679999,-0.4542,0.32569999,-7.6201997,5.8870997,-1.8555,0.06937684,-0.06571165,0.16573647,0.722126,-0.270447,-0.60837,0.187819,0
6600,-7.453351,5.76202,-1.6405644,0.14209999,-0.2735,0.27699998,-7.5853,5.9319,-1.8558999,0.1030966,-0.040805798,0.15547393,0.720838,-0.273897,-0.608146,0.188495,0
6641,-7.164658,5.9341345,-1.4833229,0.30069998,-0.0116,0.31559998,-7.5576997,5.9642997,-1.865,0.14051646,-0.09574876,0.06646214,0.719799,-0.277453,-0.607867,0.188164,0
6680,-7.2918954,5.8706403,-1.3729118,0.5115,-0.0547,0.5294,-7.5527,5.9681,-1.8729,0.1365371,-0.07335619,-0.087388635,0.71905,-0.280108,-0.608112,0.18629,0
6720,-8.257066,5.8500886,-1.397735,-0.55649996,-0.1513,0.5166,-7.5829997,5.9273996,-1.8797,0.019547688,-0.034068827,-0.15009831,0.719185,-0.280382,-0.608871,0.182845,0
6760,-8.157045,6.0659013,-1.6475939,-0.5506,0.19569999,0.24479999,-7.6182,5.8842998,-1.8727,-0.026686084,-6.28E-04,-0.11095058,0.719701,-0.278415,-0.609717,0.180995,0
6800,-8.438709,5.7231092,-1.7571716,-0.79139996,-0.1265,0.1551,-7.6422,5.8536,-1.8713,0.03947935,0.003857178,-0.058957223,0.720315,-0.276689,-0.610075,0.17999,0
6840,-8.533912,5.986615,-1.9280698,-0.9733,0.0315,-0.0049,-7.6565,5.8328,-1.8778,0.044121925,-0.04569272,-0.019285887,0.720625,-0.276486,-0.610222,0.178556,0
6881,-7.8371706,6.3400187,-2.1638315,-0.2601,0.43179998,-0.2444,-7.6636,5.8247,-1.8737999,0.011519173,-0.012740904,-0.02586578,0.720389,-0.276724,-0.610648,0.177681,0
6920,-7.8668485,6.329714,-2.2819903,-0.1493,0.58489996,-0.3845,-7.6762996,5.8089,-1.8708999,0.17317156,-0.14002776,-0.08831366,0.720301,-0.276693,-0.611131,0.176425,0
6960,-7.9786296,6.0301895,-1.8683584,-0.254,0.3033,-0.0651,-7.7089,5.7669,-1.8666999,0.21244147,-0.23314108,-0.088453285,0.719544,-0.278267,-0.612648,0.17171,0
7000,-6.854523,6.2047462,-1.8497603,0.34219998,0.3931,0.0243,-7.7363997,5.7359,-1.8484,0.043668136,-0.13583897,-0.052831117,0.718311,-0.279769,-0.614489,0.167808,0
7040,-6.871627,5.7659173,-1.9416785,0.9112,0.205,-0.1422,-7.766,5.7082996,-1.8091999,0.07150614,-0.11061897,-0.032742377,0.716639,-0.280487,-0.616964,0.16465,0
7080,-6.9243283,5.5435157,-1.9495602,1.0175999,-0.081099994,-0.1644,-7.7841997,5.6905,-1.787,0.12266174,-0.20718804,-0.05693264,0.715446,-0.281516,-0.618539,0.16215,0
7121,-7.269131,5.533172,-1.9013792,0.5305,-0.1495,-0.152,-7.8069997,5.6706,-1.7504,0.006946411,-0.10925761,0.016179202,0.713631,-0.282802,-0.620834,0.159115,0
7160,-7.7287993,5.7737703,-2.0442748,0.30429998,0.038399998,-0.2444,-7.8062997,5.6787996,-1.7267,-0.08445648,-0.00561996,0.095434606,0.712428,-0.283044,-0.621936,0.159768,0
7200,-7.5359607,5.921043,-1.9272174,0.265,0.2261,-0.24939999,-7.7769,5.7264,-1.7019999,0.060720004,-0.10990338,0.14014994,0.711365,-0.28415,-0.622085,0.161947,0
7240,-7.31873,5.5564923,-1.6576207,0.37669998,-0.17629999,0.0173,-7.7513,5.7661,-1.6844,0.08569567,-0.07023205,0.13062043,0.709467,-0.287297,-0.622738,0.162209,0
7280,-7.476029,5.218929,-1.5719562,0.3425,-0.51309997,0.1151,-7.7268996,5.7988997,-1.6840999,0.044732787,-0.010035643,0.100042276,0.708266,-0.290221,-0.622733,0.162273,0
7320,-7.538748,5.2650795,-1.6674657,0.1822,-0.5901,0.065299995,-7.7039,5.8268,-1.6932,0.03754203,0.029565878,0.071593404,0.707799,-0.292146,-0.622195,0.162919,0
7360,-7.4403744,5.4120545,-1.6968665,0.156,-0.4694,0.0532,-7.6875,5.8434997,-1.7105,0.022165682,0.050806534,0.02443461,0.707872,-0.293481,-0.621394,0.16326,0
7400,-7.466567,5.3141985,-1.7602075,0.3281,-0.4791,-0.0054,-7.6830997,5.8433,-1.7301999,-0.051225413,0.09276425,-0.051382493,0.708633,-0.293358,-0.620507,0.163552,0
7440,-7.406051,5.4706073,-1.8529876,0.34289998,-0.41849998,-0.1059,-7.6881,5.8317,-1.7473999,-0.077091195,0.08908161,-0.09053023,0.709951,-0.291658,-0.619612,0.164269,0
7480,-7.783282,5.5248218,-2.016119,0.0149,-0.27809998,-0.20539999,-7.7033,5.809,-1.7558999,-0.0776497,0.09145525,-0.10740756,0.711323,-0.289045,-0.619123,0.164799,0
7520,-8.237557,5.766243,-2.1431553,-0.4445,-0.099999994,-0.3624,-7.7243,5.7781,-1.7655,-0.055780724,0.024469515,-0.14613642,0.712817,-0.286202,-0.618704,0.164878,0
7560,-7.9733906,6.006372,-1.9372636,-0.3559,0.2629,-0.217,-7.7541,5.7387,-1.7637999,-0.079796456,0.09285152,-0.11747811,0.713917,-0.283289,-0.618946,0.164239,0
7600,-8.377283,5.7925797,-1.8836238,-0.38349998,0.1389,-0.0578,-7.7755,5.7058,-1.7759,-0.09361946,0.12548918,-0.15245451,0.715605,-0.280104,-0.618381,0.164484,0
7640,-8.3993,6.0146365,-1.9274378,-0.6605,0.2995,-0.1372,-7.8026,5.6629,-1.7946,-0.002094395,0.0686438,-0.1839577,0.7177,-0.276422,-0.617627,0.164418,0
7681,-8.407546,6.0064487,-2.0264142,-0.515,0.46649998,-0.19409999,-7.8402,5.6036997,-1.8161999,0.072396256,0.023369959,-0.14824827,0.719495,-0.273732,-0.617311,0.162246,0
7720,-8.19608,5.887265,-1.8812966,-0.40879998,0.3372,-0.0806,-7.8679,5.5565,-1.8413999,0.07920304,0.00726057,-0.07269296,0.72079897,-0.272643,-0.616939,0.159684,0
7760,-7.5401745,6.017893,-1.6334872,0.20709999,0.4046,0.1628,-7.8858,5.5284,-1.8496,0.05771804,-0.116430916,-0.07328638,0.72108,-0.272668,-0.617154,0.15753,0
7800,-7.1804886,6.1298265,-1.4937425,0.7119,0.61829996,0.3471,-7.91,5.5009,-1.8278999,-0.002583087,-0.05448918,-0.10447541,0.720441,-0.272331,-0.618566,0.155482,0
7840,-7.3730206,5.799264,-1.346997,0.58349997,0.3985,0.45619997,-7.9385,5.4656997,-1.8095,0.0792554,-0.101962134,-0.093305305,0.720243,-0.271129,-0.619792,0.153605,0
7880,-7.9602227,5.2727118,-1.4470075,0.0568,-0.079799995,0.41329998,-7.961,5.4342,-1.8058,0.06571165,0.07559021,-0.015236724,0.720155,-0.271014,-0.620533,0.151213,0
7921,-7.710297,5.613244,-1.7175907,0.2695,0.1538,0.1759,-7.9579997,5.4261,-1.8431,0.10665707,0.018221237,0.07262315,0.721217,-0.271696,-0.619215,0.150328,0
7960,-7.449731,5.7626615,-1.8755889,0.4391,0.2538,0.0425,-7.9314,5.4536,-1.8764,0.041207224,0.1113171,0.2376964,0.721412,-0.274287,-0.617791,0.150545,0
8000,-7.221908,5.6278105,-1.8828577,0.5855,0.1433,0.035099998,-7.8718996,5.5248,-1.9179,0.06747443,0.036442474,0.21560052,0.721483,-0.277942,-0.615376,0.153367,0
8040,-7.2929397,5.218603,-1.7739694,0.5797,-0.34309998,0.1776,-7.8269,5.5797997,-1.9427999,0.09206612,0.011047934,0.11173598,0.720946,-0.281594,-0.613986,0.154796,0
8080,-7.0755844,5.228161,-1.6192657,0.7242,-0.41619998,0.3155,-7.8046,5.6039,-1.9629999,0.06263987,-0.019617502,0.048781954,0.720655,-0.284158,-0.61317,0.154699,0
8121,-7.5272646,5.032286,-1.5520173,0.42369998,-0.5898,0.4287,-7.7983,5.6108,-1.9683,0.014032447,-0.026127579,0.025743606,0.720421,-0.285219,-0.613029,0.15438999,0
8160,-8.153109,4.915612,-1.5019497,-0.4296,-0.7934,0.50699997,-7.7883,5.6281,-1.9583999,-0.1449845,0.07590437,0.10321877,0.720026,-0.285333,-0.613146,0.155557,0
8200,-7.7554708,5.1728067,-1.5239764,0.0416,-0.5117,0.4811,-7.7595,5.67,-1.9520999,-0.10728539,0.09501573,0.08798204,0.72003,-0.28475899,-0.61245,0.15928599,0
8240,-7.8780537,5.296587,-1.5259013,-0.1152,-0.47059998,0.4305,-7.73,5.7072997,-1.9603,-0.027593656,0.06686357,0.05523967,0.720437,-0.284467,-0.611247,0.16256,0
8280,-7.965145,5.889114,-1.688822,-0.2368,0.104899995,0.3096,-7.7163,5.7201,-1.9767,-0.049288098,0.05550147,-0.001500983,0.72100997,-0.284485,-0.610254,0.163715,0
8320,-7.578156,5.8921113,-1.6114031,-0.0444,0.1392,0.4279,-7.7124996,5.7251,-1.9772999,-0.17112954,0.11058406,0.010681415,0.721459,-0.283395,-0.609875,0.165031,0
8360,-8.002858,5.7995324,-1.8492719,-0.12889999,0.0622,0.22129999,-7.7064996,5.7334,-1.9767,-0.064647,0.02794272,-0.11679743,0.722438,-0.280836,-0.609131,0.167845,0
8401,-8.224619,5.9367585,-1.8639722,-0.35869998,0.2033,0.1401,-7.7415,5.6903996,-1.9641999,0.06504842,-0.16228071,-0.18137461,0.722971,-0.278315,-0.610034,0.166466,0
8440,-7.665506,6.160913,-1.7022103,-0.066599995,0.4714,0.2427,-7.7883997,5.638,-1.9295,0.040578905,-0.19137534,-0.14056882,0.722116,-0.277357,-0.612456,0.16284099,0
8480,-8.795856,5.8529897,-2.08987,-0.7339,0.2243,-0.18869999,-7.8272,5.6007,-1.8804,-0.005532694,-0.07417649,0.001989676,0.72073,-0.276447,-0.615179,0.160246,0
8520,-8.626491,6.3290534,-2.1080754,-0.8637,0.6565,-0.18869999,-7.8346996,5.6,-1.851,0.08819149,-0.20539035,0.027838001,0.719474,-0.277011,-0.616601,0.159448,0
8561,-6.985792,6.206403,-2.281224,0.78849995,0.7288,-0.5025,-7.8395,5.6061997,-1.8117,0.116588,-0.1158375,0.050562188,0.717182,-0.279327,-0.618702,0.157583,0
8600,-6.703401,5.6984105,-1.8430374,1.2784,0.065799996,-0.0977,-7.8391,5.6122,-1.7949,0.15547393,-0.27167794,0.06586873,0.715455,-0.282203,-0.619944,0.155414,0
8640,-7.1005507,6.061994,-1.8473086,0.73759997,0.3301,-0.047199998,-7.8375998,5.6322,-1.7375,-0.047158796,-0.15063937,0.20512855,0.71197,-0.285815,-0.622818,0.153314,0
8680,-7.478902,6.28002,-1.957145,0.42279997,0.5431,-0.25669998,-7.7974,5.7036,-1.6848999,-0.07457792,-0.04309218,0.22802727,0.708996,-0.288499,-0.624268,0.156142,0
8720,-7.3248777,6.1900363,-2.0097504,0.3651,0.45279998,-0.3355,-7.7495,5.7742996,-1.6649,0.074543014,-0.013159783,0.13624041,0.707259,-0.29099,-0.624252,0.159428,0
8760,-6.8368444,5.647721,-1.7272441,0.83989996,-0.019,-0.098699994,-7.7242,5.8048997,-1.6761999,0.15598008,-0.04907866,0.046652652,0.706383,-0.294088,-0.623832,0.159272,0
8800,-7.0496216,5.1754885,-1.5461946,0.69549996,-0.62149996,0.1344,-7.7170997,5.8093,-1.6937,-0.026616272,0.063512534,0.046163958,0.706044,-0.296407,-0.623504,0.15775199,0
8841,-7.328441,5.311987,-1.6948553,0.4604,-0.5852,0.076699995,-7.6977,5.8317,-1.7046,-0.21952751,0.19072957,0.10225884,0.706571,-0.296093,-0.622494,0.159957,0
8880,-7.512756,5.544195,-2.0112731,0.1081,-0.36839998,-0.2581,-7.6591997,5.8796997,-1.7128999,-0.119904116,0.16957618,0.13580407,0.707587,-0.294378,-0.62071997,0.165433,0
8920,-7.001469,5.6844573,-2.0538707,0.5372,-0.2773,-0.3004,-7.6176,5.9259,-1.7392,0.046896998,0.08539896,0.061767202,0.708522,-0.294404,-0.618564,0.169408,0
8960,-7.385126,5.5220633,-2.1208413,0.4448,-0.42139998,-0.2436,-7.6036,5.9328,-1.7765,-0.001570796,0.097529,-0.070999995,0.709545,-0.295166,-0.616957,0.169664,0
9000,-7.478174,5.7025576,-2.1566012,-0.0072,-0.3349,-0.32,-7.6124997,5.9149,-1.7981,-0.1807463,0.16261232,-0.026249751,0.711036,-0.293442,-0.615992,0.169919,0
9040,-7.675906,5.711349,-2.1774402,0.18239999,-0.174,-0.3412,-7.606,5.9207,-1.8064,-0.19200367,0.1630312,-0.06497861,0.712684,-0.290146,-0.614702,0.173314,0
9080,-8.311998,5.893098,-2.299602,-0.7425,-0.0757,-0.5029,-7.6126,5.9105997,-1.8112999,-0.14332643,0.12768829,-0.121143304,0.714457,-0.28619,-0.613746,0.175955,0
9121,-8.108922,6.0736685,-2.1463444,-0.50729996,0.20629999,-0.3399,-7.6322,5.8834996,-1.8174,-0.09576622,0.09204867,-0.13000958,0.716233,-0.282268,-0.613137,0.17718899,0
9160,-8.429036,6.1844244,-2.0835972,-0.7687,0.31649998,-0.24589999,-7.6551,5.8518,-1.8232,-0.021223204,0.018151425,-0.113149695,0.717333,-0.279869,-0.612901,0.177362,0
9200,-8.032834,6.5460925,-1.7321379,-0.3734,0.6349,0.042099997,-7.6875,5.808,-1.8269,0.061575215,0.01150172,-0.16102408,0.71837,-0.277654,-0.613324,0.175169,0
9240,-8.23706,6.83988,-1.8197274,-0.687,1.0335,0.0221,-7.7172,5.7623997,-1.8462,0.03700098,0.020909045,-0.071418874,0.719599,-0.27624,-0.613165,0.172906,0
9280,-7.306098,6.664174,-1.800095,0.405,1.0267,0.0955,-7.7306,5.7398,-1.8607,0.10180505,0.022811454,-0.065764,0.720285,-0.275789,-0.612925,0.171612,0
9320,-7.5472226,5.809004,-1.6847519,0.32439998,0.3258,0.1779,-7.7481,5.7051997,-1.8939999,0.25645867,-0.065903634,-0.13418092,0.721293,-0.276236,-0.612325,0.168779,0
9360,-7.284876,5.57895,-1.4694749,0.445,-0.1364,0.4429,-7.7802997,5.6477,-1.9336,0.24026202,-0.023631757,-0.0858702,0.722064,-0.277865,-0.612188,0.163212,0
9401,-7.450976,5.633959,-1.7222068,0.3554,0.0041,0.31559998,-7.7987,5.6052,-1.9828,0.10629055,0.038292523,0.030386182,0.723115,-0.279642,-0.611293,0.158819,0
9440,-7.4151587,5.3889456,-1.8699386,0.3373,-0.254,0.1928,-7.7805996,5.6182,-2.0168,0.03080506,0.1153139,0.16039576,0.723699,-0.281229,-0.609874,0.158818,0
9480,-7.226151,5.60225,-1.9869001,0.4615,-0.122999996,0.061899997,-7.738,5.6638,-2.0526,0.0458498,0.003996804,0.14936528,0.72401,-0.28366598,-0.607883,0.160686,0
9520,-6.942419,5.680962,-1.8766423,0.7395,-0.020299999,0.1815,-7.7022,5.7081,-2.0644,-0.03371976,0.05667084,0.14672983,0.723444,-0.286159,-0.606987,0.162197,0
9560,-6.916676,5.493908,-1.6774544,0.76989996,-0.2351,0.3865,-7.664,5.7562,-2.0732,-0.08173377,0.06380924,0.13171999,0.72319597,-0.287565,-0.605887,0.164901,0
9600,-6.9384828,5.489952,-1.6407176,0.68439996,-0.3225,0.43539998,-7.6274996,5.8044,-2.0730999,-0.037768926,0.027174776,0.15374605,0.722866,-0.288387,-0.60503,0.168029,0
9640,-6.8241167,5.5415134,-1.6009835,0.8533,-0.31219998,0.4939,-7.5905,5.8529997,-2.0728,0.023649212,0.002373648,0.13055062,0.72208,-0.290315,-0.60442,0.17027,0
9681,-7.523664,5.6477494,-1.8064538,0.0889,-0.25939998,0.33249998,-7.5615997,5.8884,-2.0781,-0.018989183,0.023317598,0.080878556,0.721491,-0.29224,-0.603839,0.171533,0
9720,-7.2592196,5.904379,-1.820733,0.3251,0.0105,0.2731,-7.5428,5.9126,-2.0774999,-0.09147271,0.055641096,0.01792453,0.721237,-0.292821,-0.603448,0.17298,0
9760,-7.7098656,5.807864,-1.9157349,-0.1134,-0.1182,0.16929999,-7.5357,5.9237,-2.0718,-0.117914446,0.055484015,-0.031660274,0.721568,-0.291505,-0.603133,0.17491099,0
9800,-7.8927927,6.172501,-1.8418115,-0.23529999,0.1681,0.19389999,-7.5411997,5.9217,-2.0572,-0.13154547,0.009773844,-0.05215044,0.721902,-0.28938898,-0.603323,0.176381,0
9840,-7.739898,6.4964943,-1.9373401,-0.22999999,0.4603,0.1485,-7.5466,5.9237,-2.0314,-0.18912388,0.06190683,-0.005707227,0.721942,-0.28701,-0.60385,0.178293,0
9880,-8.360763,6.4302225,-2.143385,-0.6979,0.5739,-0.11889999,-7.5494,5.9277997,-2.0091,0.079656824,-0.08480555,-0.117181405,0.72206,-0.284718,-0.604188,0.180336,0
9921,-8.128429,6.2164297,-1.8676497,-0.611,0.3854,0.0919,-7.5873,5.8809,-2.0042,0.17729054,-0.14672983,-0.21343632,0.721976,-0.2845,-0.605455,0.176729,0
9960,-8.626433,5.991624,-1.9211074,-0.8835,0.18789999,0.0752,-7.6482,5.8039,-1.9972999,0.107320294,-0.1749867,-0.15179129,0.721964,-0.283904,-0.607382,0.17103,0
10000,-7.8819513,6.2057805,-1.8103038,-0.4008,0.3603,0.1538,-7.6896,5.759,-1.9679999,0.005532694,-0.12447688,-0.047717303,0.720977,-0.283787,-0.609644,0.167299,0
10040,-7.927288,6.3035116,-2.16364,-0.104399994,0.63949996,-0.21329999,-7.7114,5.7444997,-1.9245,-0.063338,-0.11711159,-0.02370157,0.719628,-0.283302,-0.611772,0.166162,0
10080,-7.060204,6.228152,-1.9721997,0.5413,0.43989998,-0.14,-7.7198,5.7479997,-1.8801,0.07942993,-0.16596335,0.038152896,0.718104,-0.283171,-0.613627,0.166139,0
10120,-7.2676277,6.132575,-1.906972,0.4358,0.4154,-0.0667,-7.7221,5.7528996,-1.8553,0.120567344,-0.14500195,0.06354744,0.71659,-0.284774,-0.61497897,0.164927,0
10160,-7.180393,6.082441,-1.8946946,0.5537,0.2909,-0.0296,-7.7124996,5.7695,-1.8433,0.14323917,-0.047141343,0.080704026,0.71465397,-0.288541,-0.616015,0.162905,0
10201,-6.857683,6.2020073,-2.030216,0.6925,0.3928,-0.1504,-7.6944,5.7853,-1.8697,0.21642083,-0.02841396,0.12634438,0.714191,-0.291994,-0.615309,0.161443,0
10240,-6.665477,5.7363443,-2.0629783,1.0383999,0.037299998,-0.119399995,-7.6677,5.8073997,-1.9104999,0.18764035,-0.021938788,0.09536479,0.713801,-0.296479,-0.614054,0.159767,0
10280,-6.8559885,5.387567,-2.1405885,0.9011,-0.4378,-0.1435,-7.6481,5.8216,-1.9452,0.086062185,0.001500983,0.055466563,0.713614,-0.299889,-0.612983,0.158343,0
10320,-7.0284185,5.3761034,-2.2815976,0.6911,-0.4599,-0.2532,-7.6341996,5.8339,-1.9629999,-0.014381513,0.03651229,0.054803338,0.713561,-0.301525,-0.612299,0.158116,0
10361,-7.292681,5.450295,-2.3618896,0.2796,-0.49229997,-0.4127,-7.615,5.8564997,-1.9703,-0.09374163,0.09772099,0.108926,0.713654,-0.30192,-0.611594,0.159669,0
10400,-7.238524,5.728472,-2.5080698,0.33269998,-0.21169999,-0.4838,-7.5797997,5.8995,-1.9776,-0.06544985,0.06880088,0.07894124,0.713877,-0.302011,-0.610373,0.16313,0
10440,-7.2654543,5.715879,-2.555839,0.33339998,-0.1749,-0.57519996,-7.5608997,5.9216,-1.9842999,0.00158825,0.03635521,0.035744343,0.714041,-0.302187,-0.609638,0.164827,0
10480,-7.4626884,5.4272146,-2.4419804,0.1862,-0.4781,-0.4763,-7.5509996,5.9305997,-1.9949,-0.043179445,0.017296214,-0.021607175,0.714334,-0.302392,-0.609013,0.165491,0
10520,-7.8424854,5.694714,-2.4325376,-0.26,-0.32799998,-0.46609998,-7.5558,5.9276,-1.9854,-0.1306728,0.014398966,-0.016580628,0.71444,-0.301341,-0.609258,0.16605,0
10560,-7.9309464,6.014407,-2.2330623,-0.3001,0.0038,-0.2811,-7.5548997,5.9389,-1.9548,-0.23760912,0.057595864,0.058189277,0.714149,-0.299429,-0.609932,0.16827,0
10600,-8.10965,6.290133,-2.2003,-0.5947,0.2606,-0.3084,-7.5348997,5.9763,-1.9175999,-0.1884432,0.060824726,0.059253927,0.713754,-0.297201,-0.610211,0.172824,0
10641,-7.9379086,6.3712487,-2.0409899,-0.405,0.3705,-0.13419999,-7.5186996,6.0037,-1.8957,-0.049340457,0.081140354,0.010245083,0.713551,-0.295802,-0.610212,0.176028,0
10680,-7.562249,6.201873,-1.9507763,-0.15529999,0.2523,-0.036399998,-7.5133996,6.0042,-1.915,0.09482374,0.065816365,-0.06749188,0.714489,-0.295201,-0.609191,0.176768,0
10720,-7.503553,5.9461627,-1.8092121,0.0705,-0.0145,0.1653,-7.5235996,5.9768996,-1.9598999,0.10698868,0.08710938,-0.02883284,0.71604097,-0.295324,-0.60785,0.174889,0
10760,-7.4804916,5.927593,-1.9171427,-0.0055,-0.0858,0.117,-7.5161,5.9698,-2.0096,-0.08009316,0.20142844,0.124058,0.717568,-0.295908,-0.60593,0.174306,0
10800,-7.228114,6.3197923,-2.1011035,0.2499,0.22729999,-0.0073,-7.4676,6.0193996,-2.0421999,-0.21649064,0.21109757,0.1669931,0.718792,-0.29574,-0.603253,0.178773,0
10841,-7.2957745,6.740195,-2.1343925,0.2635,0.5749,-0.066,-7.4125,6.0838,-2.0521998,-0.15571828,0.115523346,0.081541784,0.71951,-0.294854,-0.601006,0.184818,0
10880,-7.149153,6.917778,-2.0817199,0.095,0.7708,-0.012,-7.3813,6.1232,-2.0472999,-0.19446458,0.17500417,0.11873475,0.71977,-0.293797,-0.599955,0.188858,0
10920,-6.73284,6.748,-2.0009205,0.7193,0.65239996,0.0405,-7.3388,6.1728997,-2.0507998,-0.17699383,0.16718508,0.07318166,0.720448,-0.292437,-0.598141,0.194067,0
10960,-6.6165867,6.7583714,-1.8874546,0.6364,0.5182,0.14029999,-7.305,6.2091,-2.0623999,-0.070598565,0.09590584,0.05735152,0.721441,-0.290996,-0.59625,0.198313,0
11000,-6.7099323,6.7174883,-1.8235676,0.645,0.5056,0.2545,-7.2840996,6.2314,-2.0688,-0.06154031,0.019966567,0.059812434,0.72182,-0.290611,-0.595244,0.200509,0
11040,-6.7818637,6.4948754,-1.8124106,0.487,0.2728,0.2364,-7.2633996,6.2583,-2.0604,-0.07595673,0.026947884,0.10110693,0.721433,-0.290838,-0.594945,0.202449,0
11081,-6.788433,6.3289666,-1.8039832,0.5118,0.1074,0.2609,-7.2489996,6.2766,-2.0555,-0.09386381,0.007452556,0.08103564,0.721158,-0.291093,-0.594728,0.203697,0
11120,-6.8731112,6.140802,-1.8506987,0.37829998,-0.1708,0.206,-7.2331,6.2999997,-2.0398,-0.0636347,-0.00434587,0.046146505,0.720411,-0.291084,-0.59486,0.205957,0
11160,-6.809636,5.971886,-1.6185857,0.46559998,-0.32639998,0.38349998,-7.2223997,6.3183,-2.0212,-0.011082841,-0.025795966,0.024644049,0.719813,-0.291419,-0.595207,0.206568,0
11200,-6.9258413,5.8310494,-1.5778364,0.4034,-0.46019998,0.4739,-7.219,6.3244996,-2.0135,-0.09234537,0.021013765,0.06197664,0.719448,-0.291646,-0.595446,0.206831,0
11240,-6.869453,6.060012,-1.6739875,0.27429998,-0.343,0.3576,-7.1977997,6.3545,-1.9952999,-0.012566371,0.003822271,0.08567821,0.718826,-0.291585,-0.595398,0.209206,0
11280,-6.759904,6.189739,-1.6222727,0.43109998,-0.2376,0.39729998,-7.1780996,6.3764997,-1.9957999,0.09665633,-0.06962118,0.027803095,0.718332,-0.292846,-0.595099,0.20999,0
11321,-6.750682,6.220289,-1.6814574,0.39,-0.1104,0.315,-7.1762,6.3768,-2.0017,0.0776497,-0.03869395,0.001308997,0.717829,-0.294591,-0.595328,0.208617,0
11360,-7.007924,5.89463,-1.722178,0.3283,-0.42319998,0.32439998,-7.1830997,6.3661,-2.0111,0.10751228,-0.07213446,-0.101962134,0.717799,-0.295476,-0.595466,0.20707,0
11400,-7.5870337,5.86565,-1.8492335,-0.38959998,-0.49679998,0.19319999,-7.2202997,6.3219,-2.0173,0.07230899,-0.057526052,-0.11136946,0.717996,-0.295526,-0.596457,0.203428,0
11440,-7.8322573,5.7570114,-1.8559756,-0.4583,-0.51309997,0.20009999,-7.2496,6.2892,-2.0144,-0.012252212,-0.023928463,-0.08789478,0.718147,-0.294908,-0.59733,0.20122,0
11480,-8.642446,6.306088,-1.9217682,-1.1704999,-0.1372,0.099,-7.2728996,6.2664,-2.0015,-0.01839577,-0.08421214,-0.06695083,0.718169,-0.29374298,-0.598221,0.200197,0
11521,-7.988484,6.916456,-1.8707334,-0.7934,0.5764,0.1494,-7.2871,6.2588,-1.9734,-0.0763407,-0.022287855,0.050893802,0.71741897,-0.293132,-0.599539,0.199836,0
11560,-7.5941973,6.8160434,-1.9120669,-0.3365,0.5159,0.0541,-7.2734,6.2799997,-1.9566,-0.008080875,0.010733775,0.003246313,0.716892,-0.292961,-0.599668,0.201583,0
11600,-7.6715684,6.859292,-2.098537,-0.65059996,0.45679998,-0.11229999,-7.2731,6.2802997,-1.9568,0.073548175,5.93E-04,0.06169739,0.716789,-0.293226,-0.599728,0.201383,0
11640,-6.942275,6.952455,-2.2392874,0.24039999,0.6526,-0.2897,-7.2619,6.2904,-1.9657999,0.029618237,-0.07744026,-0.03473205,0.716422,-0.294902,-0.59951,0.200894,0
11680,-6.9829865,6.8446975,-2.178829,0.192,0.501,-0.3267,-7.2822,6.2753,-1.9384999,0.040544,-0.24911085,-0.06949901,0.715341,-0.295174,-0.601235,0.199185,0
11721,-6.7741256,7.1543727,-1.8721604,0.5998,0.8563,-0.0265,-7.3174,6.2534,-1.8758999,-0.042760566,-0.18517943,-0.05518731,0.71295,-0.295545,-0.604761,0.196513,0
11760,-6.371708,6.77063,-1.6539911,0.88729995,0.5992,0.1055,-7.3401,6.2458,-1.8118999,-0.14657275,-0.044087015,-0.020280726,0.710996,-0.29473,-0.607615,0.196012,0
11800,-6.9355135,6.1553493,-1.8281454,0.4044,-0.0307,-0.002,-7.3475,6.2482,-1.7729,-0.05644395,0.06979571,0.010471975,0.710416,-0.292753,-0.608744,0.197571,0
11841,-6.4889183,6.099583,-1.9783002,0.88009995,-0.2193,-0.1116,-7.3329,6.2602,-1.7908,0.059952058,0.15674803,0.115121916,0.711174,-0.292473,-0.607541,0.198958,0
11880,-6.533403,6.2083755,-2.097972,0.6375,-0.19739999,-0.2188,-7.2864,6.2971,-1.8503,0.05370378,0.12529719,0.23272221,0.712391,-0.294683,-0.604486,0.200639,0
11920,-6.4565396,6.5150924,-2.1624143,0.77739996,0.14209999,-0.2823,-7.2204,6.3596,-1.8946999,0.029583331,0.025569074,0.19444713,0.71257,-0.298073,-0.6017,0.203349,0
11960,-6.656867,6.1326904,-1.9656875,0.6116,-0.1732,-0.093399994,-7.1721997,6.4101996,-1.9071,0.020001473,-0.001291544,0.1366942,0.711807,-0.300942,-0.600524,0.205267,0
12000,-6.980716,5.8359046,-1.8928846,0.2245,-0.6017,0.0296,-7.1382,6.4465,-1.9124999,0.038624138,0.003106686,0.10489429,0.711079,-0.303112,-0.599863,0.206527,0
12040,-7.102284,5.783625,-2.0044928,-0.0481,-0.7463,-0.027199998,-7.1106997,6.4733996,-1.9241999,0.03382448,0.035971235,0.104265966,0.710674,-0.305042,-0.599108,0.207268,0
12081,-6.673234,5.8098083,-2.104082,0.4132,-0.66429996,-0.1451,-7.0817,6.4992,-1.9437,0.053232543,0.031311207,0.06553711,0.710641,-0.30674,-0.597956,0.208197,0
12120,-6.6687517,5.717258,-2.0272088,0.364,-0.8066,-0.0739,-7.062,6.5140996,-1.9656999,-0.033911746,0.075764745,0.06026622,0.710854,-0.308079,-0.596898,0.20853099,0
12161,-6.826453,5.818542,-2.1118584,0.167,-0.76809996,-0.107,-7.0414996,6.5344,-1.9719,-0.17633061,0.12955579,-6.81E-04,0.711317,-0.307518,-0.595847,0.210776,0
12200,-7.1062107,6.145207,-2.3234005,-0.1249,-0.4256,-0.3502,-7.0339,6.5449,-1.9641,-0.12496557,0.10843731,-0.030229103,0.712202,-0.304813,-0.59508,0.21386,0
12240,-7.426785,6.547299,-2.3840694,-0.2924,-0.083799995,-0.4012,-7.0330997,6.5464,-1.9620999,-0.09812241,0.07714355,-0.041922808,0.713127,-0.302478,-0.59442097,0.215914,0
12280,-7.894976,7.0896907,-2.3125594,-0.8479,0.42839998,-0.37649998,-7.0365996,6.5439997,-1.9574,-0.13192944,0.061243605,-0.026808258,0.71383,-0.300414,-0.594085,0.217393,0
12320,-7.2486277,7.4516845,-1.9594241,-0.1087,0.94759995,-0.0779,-7.0403,6.5446,-1.9420999,-0.07894124,0.03387684,-0.10807078,0.714248,-0.298114,-0.594066,0.219229,0
12360,-7.7411532,7.2664595,-1.7595371,-0.5324,0.7599,0.1424,-7.0676,6.5165997,-1.9369999,-0.001221731,0.038868483,-0.11095058,0.715119,-0.295582,-0.594394,0.218931,0
12400,-7.61722,7.31805,-1.7576219,-0.6214,0.7651,0.22549999,-7.0864997,6.4916997,-1.9514999,-0.005585054,0.085573494,0.014346606,0.716288,-0.29399,-0.594015,0.218282,0
12441,-7.053165,7.343045,-1.8320527,-0.093499996,0.8587,0.1538,-7.0751,6.4961996,-1.9777999,0.053930674,0.1129228,0.004118977,0.717291,-0.293829,-0.592617,0.219001,0
12480,-6.3515396,7.131886,-1.9022124,0.6763,0.7123,0.1459,-7.0702996,6.4856997,-2.0286999,0.2502802,0.001623156,-0.12718214,0.718971,-0.294143,-0.590691,0.218273,0
12521,-6.1577144,6.43526,-1.6882282,0.8199,0.13499999,0.339,-7.106,6.4255,-2.0943,0.28866,-0.049008846,-0.14922565,0.720771,-0.295421,-0.58987,0.212763,0
12560,-6.9116964,5.883262,-1.6883814,0.5768,-0.4186,0.5015,-7.1473,6.3613997,-2.149,0.12144001,0.003961898,-0.10670943,0.722231,-0.296565,-0.589561,0.206996,0
12600,-7.2424407,6.179885,-1.8764987,-0.0975,-0.23789999,0.3414,-7.1691,6.3278,-2.1752,0.013159783,-0.06789331,-0.012095132,0.72322,-0.296412,-0.589265,0.204591,0
12640,-7.006545,6.5319185,-1.9870534,0.11229999,0.21229999,0.159,-7.1731,6.3287,-2.1596,0.017819813,-0.03520329,0.07140142,0.722484,-0.296862,-0.590093,0.204155,0
12680,-6.7428765,6.03131,-1.8906245,0.43789998,-0.20019999,0.2559,-7.1554,6.349,-2.1584,0.066235244,0.01314233,0.070999995,0.721733,-0.298578,-0.590055,0.204416,0
12721,-6.6757045,5.859234,-1.9277346,0.4617,-0.54469997,0.2746,-7.14,6.3599997,-2.1771,0.056199603,0.005986479,0.014852752,0.72176397,-0.300096,-0.589301,0.204257,0
12760,-6.6583805,5.6650257,-1.8765754,0.508,-0.641,0.2883,-7.1373,6.3582997,-2.1908,0.022706734,-0.001745329,0.007661996,0.721908,-0.300916,-0.588943,0.203574,0
12800,-7.0518913,5.7283382,-1.8745642,0.1116,-0.70419997,0.36749998,-7.1331997,6.3627,-2.1915998,-0.08758062,0.020961404,0.054646257,0.721828,-0.301173,-0.588855,0.203732,0
12840,-6.6628237,6.0508947,-1.8107156,0.3891,-0.38599998,0.3197,-7.1165,6.3876996,-2.1732,-0.06831218,-0.035377823,0.05932374,0.721314,-0.300847,-0.588901,0.205892,0
12880,-6.422829,6.377914,-1.6400186,0.6824,-0.112399995,0.4802,-7.1057,6.4083,-2.1473,0.022811454,-0.09414306,0.028920105,0.7202,-0.301323,-0.589641,0.206973,0
12920,-6.697674,6.5294857,-1.6935338,0.4705,0.1204,0.45009997,-7.1095996,6.4107,-2.1271,0.06873106,-0.11946779,-0.052988198,0.719072,-0.302303,-0.590793,0.206181,0
12961,-7.159257,6.216851,-1.6834303,0.085099995,-0.1002,0.4447,-7.1361,6.3862996,-2.1118999,0.08365363,-0.13704325,-0.1573938,0.718388,-0.302646,-0.592298,0.203728,0
13000,-7.812682,6.2763324,-1.7951915,-0.6443,-0.0938,0.2976,-7.1910996,6.3308,-2.0922,0.06485643,-0.12582079,-0.19458675,0.718059,-0.301773,-0.594521,0.199668,0
13040,-7.42327,6.3612885,-1.8092026,-0.20179999,0.0665,0.24839999,-7.2511997,6.2685,-2.0723999,-5.24E-04,-0.006265732,-0.17552777,0.718037,-0.300149,-0.596689,0.195687,0
13081,-8.320436,6.5492334,-2.033204,-0.8932,0.23449999,0.1081,-7.2952,6.2181997,-2.0693998,0.020245818,-0.15803957,-0.22526965,0.719063,-0.297427,-0.597436,0.193789,0
13120,-8.268806,6.8596077,-1.9379338,-0.5703,0.7811,0.0843,-7.3631,6.1520996,-2.026,0.016371189,-0.16690584,-0.17231636,0.718327,-0.295471,-0.600622,0.189615,0
13160,-8.253417,6.9289346,-1.9962662,-0.98969996,0.75769997,0.013599999,-7.4094,6.1108,-1.9818,-0.08454375,-0.08464847,-0.107791536,0.71729,-0.29358,-0.60359,0.18704,0
13200,-7.2281046,6.7761655,-2.3724813,0.3356,0.7737,-0.3762,-7.4453998,6.081,-1.938,-0.020071287,-0.010925761,-0.1070934,0.716864,-0.29141,-0.605331,0.186434,0
13240,-6.959791,6.440977,-2.3225577,0.37849998,0.32979998,-0.421,-7.4687,6.0541997,-1.9325,0.09819222,-0.08026769,-0.03551745,0.717093,-0.290359,-0.605977,0.185093,0
13281,-6.800136,6.564173,-2.1944678,0.63879997,0.4944,-0.24849999,-7.4838996,6.0367,-1.9284999,0.0320617,-0.075764745,-0.028204521,0.71661997,-0.291174,-0.606796,0.182948,0
13320,-6.717814,6.6693554,-2.228638,0.7769,0.6502,-0.2627,-7.4944997,6.028,-1.9143,0.05105088,-0.05466371,0.017418386,0.715974,-0.291523,-0.607729,0.181821,0
13360,-6.809234,6.1666207,-2.0880408,0.73939997,0.2687,-0.1876,-7.4961,6.027,-1.9109,0.17310175,-0.13829988,-0.003176499,0.715303,-0.292868,-0.608247,0.180565,0
13400,-6.834919,5.7614455,-1.9388628,0.6939,-0.19489999,-0.020399999,-7.5095,6.0102,-1.9114,0.16203637,-0.13231342,-0.029269172,0.714135,-0.295747,-0.609345,0.176754,0
13440,-7.1774626,5.4926724,-1.9198241,0.3658,-0.471,0.015899999,-7.5246997,5.9921,-1.9085,0.03715806,-0.06377433,-0.04914847,0.713442,-0.297171,-0.610244,0.174041,0
13481,-7.3309016,5.437682,-2.0055559,0.18419999,-0.5834,-0.052899998,-7.5392,5.9771,-1.8985,-0.03239331,-0.001256637,-0.016091935,0.71317,-0.296962,-0.610988,0.1729,0
13520,-7.338448,5.43683,-2.0945914,0.127,-0.5742,-0.17889999,-7.5407996,5.9776998,-1.8901999,-0.036494836,0.007330383,0.033946656,0.7131,-0.296417,-0.611212,0.173332,0
13560,-7.0002527,5.458244,-2.1065814,0.46089998,-0.5092,-0.2041,-7.5315,5.9911,-1.8845999,-0.01308997,0.024190264,0.030403635,0.712848,-0.296541,-0.61118,0.174265,0
13600,-6.8490257,5.3055506,-2.2102504,0.7183,-0.7323,-0.2667,-7.5241,5.9985,-1.8907,0.03822271,0.029234264,-0.03122394,0.712999,-0.296703,-0.610777,0.174784,0
13640,-7.133974,5.4588275,-2.3308127,0.41489998,-0.5575,-0.4184,-7.5346,5.9806,-1.9057,0.04059636,-0.022270402,-0.1067967,0.713594,-0.296559,-0.610489,0.173603,0
13680,-7.9663424,5.469199,-2.3608935,-0.1916,-0.48929998,-0.4287,-7.5653996,5.9417996,-1.9051,-0.07442084,-0.041643556,-0.22265165,0.714188,-0.29508,-0.611043,0.17172,0
13721,-8.4367075,5.6139336,-2.3151548,-0.8023,-0.3196,-0.4414,-7.6215,5.8799,-1.8729,-0.18483037,0.010611602,-0.23132594,0.714816,-0.290744,-0.612826,0.170142,0
13760,-8.486372,5.801716,-2.1207647,-0.76909995,0.0017,-0.34329998,-7.6742997,5.8233,-1.8337,-0.17025687,-0.007435103,-0.23649211,0.715745,-0.284962,-0.614442,0.170194,0
13800,-9.077405,5.8590236,-2.0077295,-1.4046999,0.0668,-0.25509998,-7.7251997,5.7679996,-1.7943,-0.117600285,0.005201081,-0.13044591,0.716336,-0.279913,-0.616189,0.169768,0
13840,-8.732123,6.533652,-1.7348098,-0.9848,0.69369996,0.0018,-7.7528,5.7394,-1.767,-0.1346696,-0.00577704,-0.052342422,0.716537,-0.276894,-0.617296,0.16985,0
13881,-8.405458,6.718312,-1.7730883,-0.7432,0.95879996,-0.0053,-7.7591,5.7391,-1.7401999,-0.21540853,0.13871877,-0.008464847,0.716597,-0.274251,-0.617843,0.171881,0
13920,-7.59322,6.3323956,-1.6264099,-0.0309,0.6687,0.060399998,-7.7555,5.7448,-1.7372999,-0.008063421,0.069115035,-0.122120686,0.71766,-0.271191,-0.617099,0.174947,0
13960,-7.1358895,5.9363847,-1.406153,0.8426,0.32389998,0.3364,-7.7857,5.6973,-1.7583,0.1118756,0.01441642,-0.23917992,0.719144,-0.269228,-0.616772,0.17302799,0
14000,-7.1403522,6.011151,-1.3816267,0.5922,0.3269,0.3606,-7.8392997,5.6158,-1.7824999,-0.003665191,0.03811799,-0.16976817,0.72083,-0.267002,-0.616974,0.168686,0
14040,-7.4000564,6.027144,-1.3993918,0.5512,0.40809998,0.43879998,-7.8669996,5.5738997,-1.7922,-0.12658873,0.08452629,-0.081855945,0.722167,-0.264294,-0.616824,0.167782,0
14080,-7.579564,6.011122,-1.5616419,0.3182,0.4922,0.2861,-7.8792,5.5583997,-1.7865,-0.03371976,3.84E-04,-0.028274333,0.722939,-0.261627,-0.616777,0.168805,0
14121,-7.5007563,5.7787027,-1.5266771,0.322,0.28039998,0.24249999,-7.8828998,5.5544996,-1.7822,0.1179668,-0.025359634,0.040194932,0.722951,-0.261168,-0.616943,0.168857,0
14160,-7.29022,5.2512693,-1.3993247,0.6383,-0.2216,0.42549998,-7.8756,5.5564,-1.8082,0.2197195,-0.07483972,0.046652652,0.722634,-0.264565,-0.61655897,0.166309,0
14201,-7.396407,5.2123685,-1.6083577,0.4922,-0.4014,0.2868,-7.8668,5.5597,-1.8362999,0.09107128,0.02703515,0.087720245,0.722386,-0.267929,-0.616037,0.163923,0
14240,-7.40088,5.2454276,-1.7402399,0.45929998,-0.2777,0.138,-7.8437,5.5831,-1.8639,-0.034976397,0.092886426,0.115209185,0.722615,-0.269933,-0.614798,0.164273,0
14280,-7.3020277,5.156392,-1.7121894,0.53389996,-0.4549,0.1674,-7.8104,5.6229997,-1.8836,-0.026319565,0.06328564,0.110269904,0.722943,-0.27090698,-0.613318,0.166741,0
14320,-7.4046526,5.30942,-1.662687,0.36969998,-0.39,0.22839999,-7.7834997,5.6562,-1.8956,0.03679154,-0.012915436,0.06262241,0.722941,-0.272036,-0.612341,0.168488,0
14360,-7.4152355,5.4708657,-1.5908321,0.38709998,-0.2085,0.32209998,-7.7714996,5.6707997,-1.9009999,0.03398156,-0.014346606,0.021642083,0.722636,-0.273357,-0.612091,0.16857,0
14400,-7.452202,5.444788,-1.6074958,0.3126,-0.2339,0.3093,-7.7657,5.6766,-1.9078,0.041050144,0.008115781,0.013159783,0.722552,-0.274207,-0.611869,0.168358,0
14441,-7.636067,5.5021243,-1.5435419,0.23519999,-0.2105,0.3751,-7.7667,5.6728,-1.9146999,0.060388394,-0.06393141,-0.07113962,0.722565,-0.274821,-0.611786,0.1676,0
14480,-8.21126,5.612976,-1.5898744,-0.3302,-0.0358,0.34399998,-7.7896,5.6452,-1.9031999,-0.011798426,-0.0596379,-0.092415184,0.722253,-0.27457,-0.612826,0.165544,0
14520,-8.456866,5.617927,-1.5635477,-0.5818,-0.010799999,0.3333,-7.8125997,5.6201997,-1.8828,-0.090512775,-0.017872171,-0.087790065,0.722091,-0.273095,-0.613913,0.164658,0
14560,-8.982441,5.8675084,-1.7118063,-1.0187,0.249,0.16939999,-7.8366,5.5957,-1.8562,0.06379178,-0.10897836,-0.10379473,0.721932,-0.271023,-0.615122,0.164266,0
14601,-8.18297,6.0232844,-1.5259109,-0.4201,0.42229998,0.3081,-7.8664,5.5597,-1.8378999,0.14720106,-0.15601498,-0.042114794,0.721253,-0.271116,-0.616684,0.161211,0
14640,-8.180518,6.219121,-1.756396,-0.3214,0.5787,0.1348,-7.8767996,5.5504,-1.8215,0.0715585,-0.03918264,0.14978416,0.71986,-0.273269,-0.618065,0.158495,0
14680,-8.5754175,6.092477,-1.9752929,-0.71989995,0.4824,-0.1034,-7.851,5.5878,-1.8185999,0.050614547,-0.13974851,0.07937758,0.718675,-0.276097,-0.618061,0.15898,0
14720,-6.9433284,6.438525,-2.206659,0.6744,0.85429996,-0.42639998,-7.8430996,5.6082,-1.7897999,0.06250024,-0.06958628,0.001012291,0.716857,-0.278154,-0.619358,0.158556,0
14760,-6.7485747,5.843729,-1.7351259,1.1949999,0.3362,-0.0451,-7.8536997,5.5968,-1.7788999,0.17852972,-0.18324211,-0.09265953,0.716006,-0.279348,-0.620322,0.156524,0
14800,-7.5296683,5.508618,-1.6917237,0.4811,-0.047799997,0.1299,-7.8851,5.5592,-1.7578,0.065327674,-0.13274974,-0.027506389,0.71473,-0.280688,-0.622262,0.152196,0
14841,-7.783291,5.5806923,-2.0125277,0.0679,-0.0438,-0.2192,-7.8936,5.5551,-1.7321999,-0.040701076,0.018064158,0.10398672,0.71351,-0.281466,-0.623612,0.150954,0
14880,-7.736968,5.79167,-2.302523,0.1082,0.1618,-0.5115,-7.8652997,5.5945997,-1.7341,0.048799407,0.018221237,0.16936675,0.713118,-0.282629,-0.623017,0.153077,0
14920,-7.1779985,5.7550097,-2.0991116,0.5507,0.1334,-0.40719998,-7.8272996,5.6426,-1.7501999,0.17238617,-0.09833185,0.13960889,0.712353,-0.285988,-0.622102,0.154113,0
14960,-7.0824986,5.422053,-1.8048832,0.70519996,-0.1893,-0.0971,-7.8051996,5.6712,-1.7562,0.101298906,-0.097092666,0.07885397,0.710904,-0.290103,-0.622167,0.152851,0
15000,-7.2679534,5.05347,-1.6383713,0.5884,-0.60609996,0.0911,-7.7963,5.6858997,-1.7484,0.10084512,-0.10576695,0.03588397,0.709586,-0.292634,-0.62276,0.151727,0
15040,-7.5192013,4.94893,-1.6553414,0.3224,-0.7876,0.109799996,-7.7949996,5.6909,-1.7377,0.030386182,-0.06536258,0.055588737,0.708373,-0.294629,-0.623555,0.150261,0
15080,-7.6670957,5.1499376,-1.9310002,0.1249,-0.6296,-0.0972,-7.7839,5.7095,-1.7267,-0.044872414,0.039671335,0.090757124,0.707476,-0.295831,-0.62393,0.150572,0
15121,-7.5133686,5.1976776,-2.0421486,0.225,-0.555,-0.282,-7.7662997,5.733,-1.7283,-0.011135201,0.032742377,0.080372415,0.70733,-0.296319,-0.623506,0.152043,0
15160,-7.398332,5.1151543,-2.0588315,0.3674,-0.63229996,-0.3075,-7.7517996,5.7514,-1.7321999,0.07110471,-0.0659909,-0.016615534,0.707084,-0.297236,-0.623175,0.152753,0
15201,-7.658879,5.1529827,-2.0757346,0.19039999,-0.61649996,-0.31829998,-7.7709,5.7258,-1.7312,0.018064158,-0.020577433,-0.08892453,0.706868,-0.297666,-0.62381,0.150309,0
15240,-8.050139,5.468146,-2.0010834,-0.2207,-0.30519998,-0.301,-7.7911997,5.6988,-1.7289,-0.0856084,0.05311037,-0.07543313,0.707223,-0.296623,-0.624208,0.149042,0
15280,-8.626625,5.5887375,-1.9440726,-0.6985,-0.1621,-0.2278,-7.8037996,5.6832,-1.7236999,-0.1919164,0.10370746,-0.06393141,0.708122,-0.294019,-0.624183,0.150035,0
15320,-9.422304,5.961964,-1.9912671,-1.5975,0.1634,-0.2651,-7.8069,5.6812997,-1.7156999,-0.22919664,0.16104153,0.009110618,0.709329,-0.2904,-0.62379,0.152986,0
15360,-8.671846,6.8067822,-1.8938806,-0.6407,1.0653,-0.14,-7.7928996,5.7012,-1.7133,-0.19921188,0.09546951,0.013072516,0.710484,-0.287349,-0.622832,0.157232,0
15400,-8.4894085,6.7008824,-1.7526227,-0.9723,0.9106,-0.1205,-7.7750998,5.7283998,-1.7034999,-0.15685274,0.14592698,0.093479834,0.711124,-0.284881,-0.622149,0.161475,0
15441,-7.431621,6.574373,-1.4767053,0.024899999,0.81409997,0.24139999,-7.7524996,5.7563,-1.7124,-0.012461651,-0.009546951,-0.054681167,0.711838,-0.283897,-0.620949,0.164651,0
15480,-6.5415716,6.415943,-1.1674798,1.1532,0.713,0.5229,-7.7727,5.7299,-1.7095,0.03728023,-0.043388885,-0.1953547,0.712204,-0.282716,-0.621361,0.163542,0
15520,-6.7764144,6.1064496,-0.95920336,1.0917,0.4799,0.672,-7.8191,5.6688,-1.7017,-0.08972738,0.06105162,-0.116116755,0.712854,-0.280359,-0.622436,0.160653,0
15560,-7.3235855,5.696131,-1.1465545,0.8139,0.1095,0.6498,-7.8355,5.6468997,-1.6990999,-0.1637817,0.1409877,-0.026581364,0.713903,-0.277444,-0.622338,0.161435,0
15600,-7.9953313,5.9668865,-1.6386396,-0.14119999,0.1837,0.1442,-7.8314996,5.6510997,-1.7034,-0.022410028,0.023230333,0.05773549,0.714982,-0.275049,-0.62151897,0.163895,0
15640,-7.5371003,6.1568236,-1.6223686,0.122499995,0.4709,0.091,-7.8108997,5.6777997,-1.7091,0.043755405,-0.006126106,0.16130333,0.714789,-0.276081,-0.620948,0.165162,0
15681,-7.23002,5.8797574,-1.6593255,0.4971,0.227,0.0725,-7.7735996,5.7254996,-1.7199999,-0.036966074,0.12189379,0.14852752,0.714156,-0.278708,-0.620071,0.166773,0
15720,-7.022414,5.4859114,-1.6865427,0.741,-0.2403,0.092,-7.7331,5.7713,-1.7493,-0.04852015,0.14145893,0.07435103,0.714844,-0.279625,-0.618017,0.169884,0
15760,-7.0875363,5.3913784,-1.7351164,0.6476,-0.3913,0.0647,-7.7084,5.7946997,-1.7808,0.011466813,0.082205005,0.054471727,0.715922,-0.279739,-0.616149,0.171931,0
15800,-7.152477,5.380451,-1.6531867,0.62909997,-0.4667,0.1196,-7.6899,5.8113,-1.8064,0.037384953,0.010384709,0.04649557,0.716531,-0.28050599,-0.614843,0.172818,0
15840,-7.4696603,5.437146,-1.4854681,0.107599996,-0.4298,0.306,-7.6784,5.8234997,-1.8161999,-0.00424115,9.25E-04,0.047926743,0.716471,-0.281556,-0.614389,0.172975,0
15880,-7.121534,5.862873,-1.5104253,0.391,-0.051999997,0.30539998,-7.6675997,5.8378997,-1.8155999,-0.044505894,0.014992379,0.04384267,0.71626997,-0.28201,-0.6142,0.173733,0
15920,-6.9163218,5.5448947,-1.224548,0.8623,-0.20289999,0.5653,-7.6583,5.8515,-1.8106999,-0.043284167,0.014905112,-0.038362335,0.716171,-0.281819,-0.614059,0.174947,0
15960,-7.8288,5.542653,-1.253604,5.00E-04,-0.3962,0.5697,-7.6692996,5.8388,-1.8053,0.028640853,-0.045657814,-0.08794714,0.716393,-0.280766,-0.614328,0.174789,0
16000,-8.34971,5.902119,-1.3885604,-0.6333,0.022699999,0.47869998,-7.6924,5.8122,-1.7928,-0.07749262,0.008761553,-0.0344528,0.716296,-0.279876,-0.615266,0.17331,0
16041,-8.557777,6.2039704,-1.6130503,-0.8021,0.34129998,0.1862,-7.7001996,5.8073997,-1.7749,-0.022148227,-0.07976155,-0.049061205,0.716172,-0.278554,-0.61584,0.173913,0
16080,-8.47217,6.097716,-1.4322306,-0.7617,0.3182,0.29549998,-7.7135997,5.797,-1.7502999,-0.019809486,-0.19778071,-0.06667158,0.715069,-0.277932,-0.6177,0.172845,0
16120,-7.9563246,6.390048,-1.4728172,-0.2712,0.5944,0.2348,-7.7407,5.7798,-1.6861999,-0.059515726,-0.12683308,-0.059341196,0.713422,-0.277496,-0.620064,0.171885,0
16160,-8.853652,6.1259675,-1.7035223,-0.6947,0.5291,-0.0081,-7.7584996,5.7665997,-1.6492,0.058590703,-0.10808824,-0.07506661,0.712411,-0.276687,-0.621767,0.171227,0
16201,-8.946931,6.116563,-1.8104092,-1.2804999,0.2287,-0.098,-7.7709,5.7532,-1.6376,0.14624114,-0.085905105,0.003159046,0.71203,-0.276607,-0.62254,0.170127,0
16240,-6.667076,6.190601,-1.8011101,1.0971999,0.6066,-0.1972,-7.7854,5.7283998,-1.6560999,0.26705283,-0.13683382,-0.019792033,0.710292,-0.282711,-0.623704,0.162946,0
16280,-7.1555796,5.598965,-1.6656365,0.85819995,-0.1131,0.0312,-7.8012996,5.7029,-1.6689,0.306794,-0.17797123,-0.025778513,0.709295,-0.28633898,-0.624497,0.157834,0
16320,-7.600671,5.8690214,-1.9091939,0.264,0.0865,-0.14029999,-7.8150997,5.6797,-1.6836,0.21137683,-0.083025314,0.06660176,0.708212,-0.290309,-0.62519,0.152619,0
16360,-7.5857315,5.782754,-2.059301,0.174,0.1662,-0.3515,-7.8036,5.6882,-1.7077999,0.1325054,0.027523842,0.104178704,0.70754,-0.294045,-0.624778,0.15025,0
16401,-7.274696,5.4719963,-2.1078742,0.4003,-0.2119,-0.3545,-7.7749,5.7134,-1.7537999,0.1511106,3.14E-04,0.056740653,0.707868,-0.297228,-0.622971,0.149946,0
16440,-6.7899942,5.300523,-1.8724957,0.87219995,-0.3714,-0.1484,-7.7662997,5.716,-1.7833999,0.12904964,-0.02300344,0.010000736,0.707918,-0.299635,-0.622141,0.148356,0
16480,-7.2246857,4.8635526,-1.8082161,0.7844,-0.7963,0.057,-7.7667,5.7093997,-1.8025999,0.00731293,0.013229596,-0.012269665,0.708029,-0.301008,-0.621714,0.146832,0
16520,-7.420273,5.012367,-1.864384,0.2993,-0.7899,-0.041699998,-7.7620997,5.7128,-1.8117,-0.094876096,0.11037462,0.07956956,0.708393,-0.300914,-0.621238,0.147282,0
16560,-7.657107,5.2294726,-2.0711088,0.0848,-0.5311,-0.2198,-7.7339997,5.7482,-1.8198999,-0.20008455,0.13165018,0.09206612,0.708973,-0.300249,-0.620055,0.150794,0
16600,-7.4286523,5.3613167,-2.166829,0.26139998,-0.5028,-0.30159998,-7.7046,5.7886,-1.8166,-0.20038125,0.20071286,0.049689524,0.709564,-0.298565,-0.619037,0.155467,0
16640,-7.337529,5.6450777,-2.2281878,0.36049998,-0.20009999,-0.3978,-7.6861,5.8094997,-1.8282,-0.06839945,0.03481932,-0.057176985,0.710914,-0.296336,-0.617606,0.15921,0
16681,-7.1810827,5.7587543,-2.1358864,0.5106,-0.028299998,-0.3161,-7.6988997,5.7946,-1.8217,-0.09297369,0.023980824,-0.12199851,0.71147,-0.294436,-0.617774,0.159598,0
16720,-7.9048877,5.7433543,-2.0897741,0.009099999,0.0047,-0.2905,-7.7268996,5.7615,-1.808,-0.18884462,0.074630275,-0.17076302,0.712342,-0.291127,-0.618316,0.159683,0
16760,-8.496256,5.7647877,-2.0282335,-0.6253,0.012399999,-0.24239999,-7.7591996,5.7243,-1.7874,-0.29618236,0.16413076,-0.17257816,0.713782,-0.285746,-0.618775,0.161183,0
16800,-9.026237,5.8759937,-2.1108813,-1.0482,0.12539999,-0.304,-7.7795997,5.7002,-1.7760999,-0.23125613,0.16048302,-0.18277088,0.716085,-0.278779,-0.618459,0.16435,0
16841,-8.640674,6.271008,-1.9888824,-1.0093,0.39929998,-0.2501,-7.8166,5.6513,-1.77,-0.035761796,0.00741765,-0.15039502,0.717824,-0.273812,-0.618345,0.16554,0
16880,-8.186714,6.484743,-1.7278379,-0.5661,0.8718,-0.0523,-7.8479,5.6103,-1.7619,-0.011187561,-0.004694936,-0.039880775,0.718385,-0.271576,-0.619048,0.164155,0
16920,-7.4321194,6.2860823,-1.5115361,0.4423,0.64629996,0.2661,-7.8560996,5.6004,-1.7566999,0.014608406,-0.033684853,-0.079080865,0.718462,-0.270889,-0.619319,0.16393,0
16960,-7.110444,6.337241,-1.3552427,0.6653,0.7981,0.3619,-7.883,5.5663,-1.7445999,0.07483972,-0.11588986,-0.22268656,0.718399,-0.269916,-0.620329,0.161982,0
17000,-7.0650687,5.767804,-1.2466034,0.9482,0.44329998,0.4623,-7.9403,5.4895997,-1.7272999,0.070249505,-0.06403613,-0.24926792,0.71857,-0.26782,-0.622158,0.157632,0
17041,-7.7563615,5.254018,-1.2888467,0.4353,-0.082899995,0.4624,-7.9961996,5.4079,-1.7275,0.15222761,-0.03398156,-0.18109536,0.719358,-0.265714,-0.623289,0.153067,0
17080,-8.094202,5.541667,-1.4792815,-0.107999995,0.0747,0.3372,-8.0314,5.3483,-1.7493999,0.023073252,0.025638886,-0.0458498,0.720313,-0.265226,-0.623369,0.14904,0
17120,-8.101586,5.5683293,-1.6697164,-0.0349,0.22219999,0.19119999,-8.0359,5.3381,-1.7601999,-0.060877085,0.109135434,0.07300712,0.720818,-0.264893,-0.623025,0.148628,0
17160,-7.4448943,5.3172827,-1.7830483,0.5423,-0.0317,0.0427,-7.9953,5.3862,-1.7981,0.019792033,0.116937056,0.13177235,0.72189,-0.265616,-0.620645,0.152054,0
17201,-7.9241085,5.1075697,-1.9486599,0.110599995,-0.3964,-0.067499995,-7.9658,5.4174,-1.8348999,0.059131756,0.056269415,0.102119215,0.722478,-0.26754498,-0.618863,0.15314,0
17240,-7.21825,5.200819,-1.7814777,0.5132,-0.292,0.0289,-7.9368997,5.4502997,-1.8627,-0.09019861,0.07255334,0.14817846,0.722732,-0.269505,-0.617437,0.154255,0
17280,-7.4676204,5.0092826,-1.7450475,0.5458,-0.47129998,0.1081,-7.9007998,5.5021996,-1.8635,-0.105574965,0.022060962,0.12894492,0.722528,-0.270126,-0.616515,0.157775,0
17320,-7.3330665,5.152437,-1.4420469,0.5554,-0.4414,0.3347,-7.8711996,5.5506,-1.8449,-0.053162728,-0.03642502,0.15374605,0.721583,-0.270893,-0.616516,0.160752,0
17360,-7.0251718,5.413855,-1.3549553,0.8167,-0.2096,0.4922,-7.8382998,5.6032,-1.8259,-0.016353736,-0.026860617,0.101298906,0.720296,-0.272523,-0.616626,0.163324,0
17400,-7.127395,5.4505153,-1.2699803,0.66639996,-0.2721,0.5057,-7.8252997,5.6264997,-1.81,0.05482079,-0.06106907,-0.010332349,0.719109,-0.274167,-0.617206,0.163617,0
17441,-8.116354,5.2890215,-1.3395749,-0.1165,-0.2591,0.5169,-7.8366,5.6134996,-1.8015,-0.088558,-0.001448623,-0.11136946,0.718881,-0.273976,-0.617802,0.162681,0
17480,-8.299002,5.6929045,-1.4574273,-0.5039,-0.0177,0.3624,-7.8609996,5.5878,-1.7745999,-0.1724909,-0.024207717,-0.047472954,0.718961,-0.271246,-0.618887,0.162779,0
17520,-8.337252,5.613589,-1.4694173,-0.4046,0.0634,0.2625,-7.8721,5.5850997,-1.7335,-0.0821701,-0.01155408,-0.047054075,0.718507,-0.268578,-0.620116,0.164525,0
17561,-9.07728,5.670035,-1.450867,-0.90739995,0.030399999,0.32479998,-7.8890996,5.5691,-1.7076,0.043982297,-0.09073967,-0.08157669,0.718082,-0.267249,-0.621264,0.16421,0
17600,-8.834021,6.4161544,-1.4620527,-0.8287,0.7791,0.2297,-7.9089,5.5460997,-1.6909,0.056985,-0.10086258,-0.03473205,0.717517,-0.267175,-0.622442,0.162329,0
17640,-9.240757,6.3619113,-1.5905256,-1.2694,0.8085,0.144,-7.9193997,5.5362997,-1.6739,0.004328417,-0.03817035,-6.11E-04,0.716703,-0.267736,-0.623501,0.160932,0
17680,-8.8774605,6.136272,-1.8374158,-1.3148,0.5739,-0.1354,-7.923,5.5355997,-1.6590999,-0.006946411,-0.08546878,0.02167699,0.716156,-0.267794,-0.624163,0.160706,0
17720,-6.2418756,6.2227025,-1.811003,1.3708,0.70129997,-0.1621,-7.9216,5.5453997,-1.6323999,0.059864793,-0.06335545,0.025411993,0.714911,-0.26858,-0.625284,0.16058,0
17760,-6.5051894,5.455284,-1.657793,1.6186999,0.075899996,-0.07,-7.9244,5.5432,-1.6265,0.21888174,-0.18940313,-0.03090978,0.714119,-0.27011698,-0.625926,0.159014,0
17801,-7.4144306,5.4381037,-1.6001694,0.5592,-0.146,0.022799999,-7.9435997,5.52,-1.6114999,0.121038586,-0.15666075,0.010698868,0.712494,-0.272977,-0.62765497,0.15454,0
17840,-7.3878264,5.954504,-1.9878961,0.55939996,0.3189,-0.2821,-7.9438,5.5257,-1.5909,-0.060650192,0.038624138,0.13747959,0.711041,-0.274836,-0.628826,0.153173,0
17880,-7.886874,5.8472533,-2.2795002,0.0207,0.275,-0.6601,-7.9052997,5.5794,-1.5954,-0.025935592,0.10777408,0.24155357,0.710698,-0.276135,-0.627869,0.156321,0
17920,-7.1836877,5.903268,-2.0400321,0.5523,0.28,-0.49089998,-7.8483996,5.6528997,-1.6173999,0.10325368,-0.07113962,0.1579523,0.71029,-0.279206,-0.626133,0.159652,0
17960,-6.858689,5.5499415,-1.6295607,1.0126,0.0134,-0.087799996,-7.8184,5.694,-1.6185,0.09848893,-0.07072074,0.065659285,0.70889,-0.282836,-0.626067,0.159741,0
18001,-7.3095074,4.8866806,-1.3554726,0.5812,-0.7546,0.22739999,-7.8086996,5.707,-1.6199,0.07482226,-0.070598565,0.034225907,0.70802,-0.285137,-0.626257,0.158761,0
18040,-7.728167,4.977967,-1.53046,0.2342,-0.81159997,0.17819999,-7.8048997,5.7149,-1.61,-0.02443461,-0.015655603,0.06525786,0.707048,-0.286654,-0.62686497,0.157963,0
18080,-7.4629374,5.2601666,-1.8155711,0.19649999,-0.5147,-0.1529,-7.7868,5.7416997,-1.6024,-0.088872164,0.044453535,0.09724975,0.706528,-0.28726,-0.626782,0.159506,0
18120,-7.136675,5.4882765,-1.9318813,0.6131,-0.3534,-0.3056,-7.7622,5.7764997,-1.5968,-0.07358308,0.029548423,0.07278023,0.706301,-0.28732198,-0.626316,0.162208,0
18160,-7.008326,5.5420885,-1.8785672,0.8139,-0.14109999,-0.3168,-7.7472997,5.7995996,-1.5856,-0.10941469,0.013002703,-0.01881465,0.705937,-0.287225,-0.626291,0.164052,0
18200,-7.9792233,5.1446896,-1.9757335,0.2473,-0.56409997,-0.2732,-7.7493997,5.8008,-1.5704,-0.17638297,0.093305305,-0.12774065,0.705909,-0.285938,-0.62662,0.165159,0
18241,-8.515409,5.2915306,-2.0717125,-0.6763,-0.50159997,-0.5327,-7.7769,5.7678,-1.556,-0.12135274,0.041765727,-0.1990897,0.707409,-0.280906,-0.626762,0.166828,0
18280,-8.798825,5.376697,-1.8534856,-0.96529996,-0.3477,-0.3633,-7.8213997,5.7118998,-1.5390999,-0.13095206,0.024818582,-0.18715166,0.708547,-0.27647,-0.62763697,0.166122,0
18320,-9.232339,5.8579793,-1.6446921,-1.214,0.0484,-0.1012,-7.8571,5.6686997,-1.5167999,-0.17029178,-0.007696902,-0.082920596,0.709381,-0.27224,-0.628514,0.16623,0
18360,-8.57423,6.6268725,-1.440572,-0.6482,0.905,-0.0014,-7.8736997,5.6555,-1.4793,-0.16072737,0.011588986,-0.05920157,0.709245,-0.26907,-0.629643,0.167694,0
18400,-8.72201,6.3149753,-1.2633628,-0.9316,0.69769996,0.1004,-7.8845,5.6471,-1.4537,-0.008499754,0.05110324,-0.044401176,0.709368,-0.266303,-0.630254,0.169287,0
18440,-7.7224975,6.435959,-1.1804659,-0.015299999,0.8278,0.2774,-7.8985,5.6247997,-1.464,0.12789772,-0.10374237,-0.15156439,0.709945,-0.265749,-0.630162,0.168074,0
18481,-6.933225,6.0610366,-1.1061021,1.0102999,0.5573,0.38779998,-7.9337997,5.5717998,-1.4764,0.08543386,0.13435544,-0.14425147,0.710581,-0.265236,-0.630633,0.164395,0
18520,-7.4553237,5.682121,-1.1921208,0.5259,0.2258,0.3035,-7.9592996,5.5207996,-1.5293,0.09777334,0.003054326,-0.096359625,0.712904,-0.264087,-0.629169,0.161771,0
18560,-7.6126513,5.8304844,-1.2483943,0.49289998,0.255,0.4032,-7.9754,5.4916,-1.5505999,-0.03869395,0.04569272,-0.00561996,0.713765,-0.263818,-0.628793,0.159869,0
18601,-7.6080546,5.90571,-1.3678745,0.3893,0.46469998,0.1752,-7.9698,5.4976,-1.5579,-0.024713863,0.04223697,0.07061602,0.714221,-0.263288,-0.628242,0.16086599,0
18640,-7.612403,5.7353578,-1.5150892,0.3764,0.1899,0.12709999,-7.9472,5.5273,-1.5685999,0.08438667,0.010960667,0.13964379,0.714225,-0.264315,-0.627415,0.162384,0
18680,-7.3297143,5.713561,-1.5504755,0.46339998,0.1716,0.0013,-7.9164,5.5652,-1.5899999,0.12423254,-0.03330088,0.12695526,0.713779,-0.267559,-0.626466,0.162695,0
18720,-7.316125,5.429264,-1.5303928,0.6253,-0.1525,0.1153,-7.8919997,5.5952,-1.6058999,0.012514011,0.024417156,0.07986627,0.713217,-0.270561,-0.625849,0.16257,0
18761,-7.429246,5.2459354,-1.4927752,0.46879998,-0.3628,0.106199995,-7.8728,5.6191998,-1.6164,-0.034348078,0.019792033,0.042952552,0.713213,-0.271554,-0.625133,0.16368599,0
18800,-7.50746,5.240074,-1.4193977,0.37939999,-0.3891,0.19049999,-7.8617997,5.6356,-1.6125,-0.06613053,0.023649212,0.04946263,0.713067,-0.271574,-0.62496,0.164944,0
18840,-7.5395327,5.38161,-1.3318944,0.3044,-0.31489998,0.24399999,-7.8458,5.6594996,-1.6071,-0.028431414,0.010314896,0.08562585,0.712843,-0.271654,-0.624706,0.166731,0
18880,-7.363779,5.2840896,-1.1495425,0.42479998,-0.389,0.4243,-7.8287997,5.6846,-1.6011,0.037943456,-0.07752752,-0.009983284,0.712312,-0.272486,-0.624622,0.167954,0
18920,-7.4102364,5.4253182,-1.0596257,0.41369998,-0.34239998,0.4872,-7.8373,5.6772,-1.5855,0.058904864,-0.08990191,-0.087790065,0.711533,-0.273058,-0.625585,0.166738,0
18961,-7.589677,5.3449783,-0.9390346,0.5172,-0.2737,0.66459996,-7.8623996,5.6477,-1.5668,-0.013473942,-0.07386234,-0.10890854,0.71103,-0.272625,-0.626907,0.164613,0
19000,-8.383422,5.650172,-1.0235021,-0.3752,-0.0347,0.49839997,-7.8917,5.6147,-1.5379,-0.07391469,-0.08059931,-0.13124876,0.710581,-0.271088,-0.628475,0.163105,0
19040,-8.614693,5.7922826,-1.0176698,-0.75259995,0.17549999,0.46249998,-7.9262,5.5808997,-1.4824,-0.23033111,-0.046373397,-0.083828166,0.709629,-0.268346,-0.630905,0.162405,0
19080,-8.995476,5.8204384,-1.0866898,-1.1178,0.1849,0.3459,-7.9434,5.5715,-1.4246,-0.13459979,4.01E-04,-0.031101767,0.708966,-0.264583,-0.632676,0.164568,0
19120,-9.363493,6.176696,-1.2052411,-1.0526999,0.53139997,0.3137,-7.9497,5.5681996,-1.4022,-0.052394785,-0.03832743,-0.046827182,0.708696,-0.262602,-0.633542,0.165567,0
19161,-8.582466,6.6321015,-1.5781237,-0.82909995,1.0866,-0.14829999,-7.9575,5.5622,-1.3815,-0.07438593,0.05359906,0.022148227,0.708516,-0.261616,-0.633995,0.166166,0
19200,-7.018554,6.2080116,-1.712132,0.791,0.792,-0.34109998,-7.9498,5.5724,-1.3848,0.05384341,0.02427753,-0.002251475,0.708848,-0.261038,-0.633506,0.167521,0
19240,-7.327349,5.7133317,-1.8028626,0.7403,0.1683,-0.3554,-7.9481997,5.5685,-1.4096999,0.1767495,-0.049131017,0.01823869,0.709447,-0.261844,-0.632728,0.166661,0
19280,-7.730207,5.695911,-1.6117191,0.44529998,0.124199994,-0.19399999,-7.9473,5.5635,-1.4338,0.12489576,-0.09642944,-0.010646508,0.709401,-0.264303,-0.632387,0.164252,0
19320,-7.381477,6.231427,-1.7178302,0.3893,0.5699,-0.2618,-7.9501996,5.5592,-1.4347,0.04096288,0.019704767,0.08286823,0.7088,-0.265993,-0.632829,0.162403,0
19360,-7.756543,5.890138,-1.8716145,0.1806,0.415,-0.4012,-7.9279,5.5864997,-1.4521999,0.10981612,0.05565855,0.16947147,0.708709,-0.267904,-0.631968,0.163013,0
19401,-7.322924,5.5675244,-1.8714708,0.57049996,-0.0047,-0.32819998,-7.8862996,5.6337,-1.4957,0.20530307,-0.045832347,0.11163126,0.708648,-0.272179,-0.63013,0.163314,0
19440,-6.872901,5.375184,-1.8161073,0.8943,-0.2688,-0.3173,-7.8668,5.6527,-1.5261999,0.21750294,-0.03944444,0.08970992,0.708267,-0.276,-0.629316,0.161686,0
19480,-7.298073,4.9008546,-1.7269186,0.65239996,-0.7233,-0.145,-7.8504,5.6658998,-1.5612999,0.14505431,-0.032009337,0.054785885,0.707972,-0.279962,-0.628448,0.159525,0
19520,-7.6545305,5.050559,-1.8961216,0.2007,-0.68329996,-0.25329998,-7.8399997,5.6749,-1.5805,0.027471483,-0.005218534,0.043860123,0.70776,-0.282237,-0.627952,0.158402,0
19560,-7.337797,5.063248,-1.8608598,0.5049,-0.5974,-0.2591,-7.8304,5.6871,-1.5843999,-0.017243853,-6.11E-04,0.018064158,0.707541,-0.283144,-0.62774,0.158605,0
19600,-7.4542704,4.891852,-1.9520406,0.4139,-0.81869996,-0.3344,-7.8278,5.6926,-1.5777999,-0.140691,0.060510565,-0.040404372,0.707527,-0.282584,-0.627786,0.159485,0
19640,-7.4080048,5.183351,-2.1001267,0.4206,-0.5976,-0.525,-7.8343997,5.6872997,-1.5638,-0.19003145,0.10716321,-0.079796456,0.708067,-0.279951,-0.6279,0.161272,0
19681,-7.6809916,5.301021,-2.1622036,0.3265,-0.4141,-0.5918,-7.8482,5.6705,-1.5557,-0.1656841,0.06101671,-0.1558579,0.70934,-0.275968,-0.627679,0.163387,0
19720,-8.007283,5.489981,-2.0074425,-0.109,-0.2049,-0.5367,-7.8833,5.628,-1.5324,-0.109275065,-0.058136918,-0.2184454,0.710223,-0.271507,-0.628531,0.163748,0
19760,-8.890599,5.5605717,-1.6723307,-0.6451,-0.1029,-0.1857,-7.9356,5.5652,-1.4911,-0.12034045,-0.00858702,-0.17931512,0.710366,-0.267219,-0.630599,0.162224,0
19800,-9.026255,6.0778537,-1.4933977,-1.2574999,0.39999998,-0.0681,-7.9704,5.5231,-1.4616,-0.1505521,0.026040312,-0.07566002,0.71076,-0.263332,-0.631817,0.162116,0
19840,-8.902303,6.680656,-1.4142932,-1.0258,1.0922999,0.0015,-7.9863997,5.5074997,-1.4332,-0.09862856,-0.044680428,-0.05721189,0.710804,-0.260451,-0.632675,0.16323,0
19880,-8.324801,6.636842,-1.1238383,-0.53099996,1.1731,0.23269999,-8.0007,5.4953,-1.3996999,-0.10407399,0.06421066,-0.034225907,0.71028,-0.258592,-0.633908,0.163683,0
19921,-7.1683164,6.5694404,-1.2375342,0.7295,1.1528,0.1788,-8.0061,5.4862,-1.4046999,-0.005375614,0.14388494,-0.15397294,0.71125,-0.256403,-0.63338,0.164952,0
19960,-7.469699,6.0218005,-1.3233136,0.8096,0.7109,0.1779,-8.0371,5.428,-1.4527,0.14100514,0.06808529,-0.24446827,0.713896,-0.253818,-0.631954,0.162978,0
20000,-7.2533684,5.6764607,-1.3117831,0.7446,0.3678,0.2113,-8.08,5.3494,-1.5058,0.09149016,0.05529203,-0.20343557,0.71644,-0.251967,-0.630873,0.15882,0
20040,-7.8882527,5.4449224,-1.4088632,0.3153,0.18609999,0.12889999,-8.1214,5.2760997,-1.541,0.11037462,-0.00699877,-0.20193459,0.718377,-0.250012,-0.630378,0.155083,0
20080,-7.8864813,5.4618063,-1.3754402,0.38549998,0.17,0.203,-8.1524,5.2236,-1.5562999,0.18432422,-0.08407251,-0.082920596,0.719264,-0.249016,-0.630513,0.151992,0
20120,-7.977748,5.091059,-1.2274402,0.1963,-0.0082,0.3295,-8.1789,5.1763,-1.5748999,0.2234894,-0.0821701,-0.007225663,0.719369,-0.250618,-0.630926,0.147072,0
20161,-7.9358974,4.8267584,-1.2337513,0.2305,-0.3182,0.3689,-8.1837,5.1626997,-1.5947,0.11491248,-0.01563815,0.010297443,0.71911,-0.253356,-0.630889,0.143767,0
20200,-7.722555,4.8138204,-1.2630371,0.3944,-0.35599998,0.33879998,-8.1807995,5.1612997,-1.6136999,-0.026214845,0.05958554,-0.015725417,0.719461,-0.254267,-0.630294,0.14301,0
20240,-7.772766,4.4450846,-1.1762712,0.42459998,-0.64489996,0.43969998,-8.1817,5.1559,-1.6264,-0.066881016,0.048624873,-0.042603485,0.720232,-0.253353,-0.62967,0.143498,0
20280,-7.7683516,4.497757,-1.1691175,0.4382,-0.65779996,0.46179998,-8.1854,5.1492,-1.6287999,-0.11189306,0.06270968,-0.020926498,0.72093,-0.251612,-0.629335,0.144523,0
20320,-7.5687995,4.6744204,-1.1821324,0.6143,-0.5218,0.46949998,-8.1851,5.1505,-1.6266999,0.00148353,0.016563175,-0.013055063,0.721417,-0.249992,-0.629078,0.146018,0
20361,-7.8549447,4.861704,-1.204657,0.4122,-0.3373,0.4457,-8.1889,5.1426,-1.6322999,0.07311184,-0.032009337,-0.050632,0.721636,-0.24994,-0.628968,0.145497,0
20400,-7.948587,4.908659,-1.1628542,0.2687,-0.2365,0.4587,-8.2023,5.1201997,-1.6355,0.025516713,-0.008639379,-0.059306286,0.721672,-0.250163,-0.629273,0.143607,0
20440,-8.339924,4.8805513,-1.0986226,-0.012399999,-0.226,0.5354,-8.2153,5.0999,-1.6337,-0.05508259,0.010925761,-0.11006046,0.721858,-0.249439,-0.629559,0.142671,0
20480,-9.14609,4.9809833,-1.3109595,-0.6943,-0.1117,0.38779998,-8.2394,5.0641,-1.6234,-0.11122983,0.018640116,-0.1518611,0.722392,-0.246825,-0.630099,0.14213,0
20520,-8.930631,5.1342316,-1.4685171,-0.6882,0.0821,0.19569999,-8.2651,5.027,-1.6078999,-0.06298893,0.010349803,-0.10847221,0.723007,-0.243397,-0.630716,0.142177,0
20561,-9.3128605,4.9437776,-1.4481952,-0.95699996,-0.0365,0.1348,-8.2905,4.9888,-1.596,0.16826719,-0.14037684,-0.14182545,0.72325,-0.241426,-0.631482,0.1409,0
20600,-8.835926,5.5450287,-1.3193775,-0.6663,0.36249998,0.23979999,-8.3263,4.933,-1.5833,0.26532495,-0.20331341,-0.07517133,0.722465,-0.242428,-0.633137,0.135683,0
20640,-8.968229,5.509345,-1.3047825,-0.8504,0.66819996,0.2805,-8.3481,4.9019,-1.5652,0.19757128,-0.14631096,0.14220943,0.72078997,-0.245487,-0.634956,0.130487,0
20680,-7.3489637,5.704243,-1.5616516,0.7244,0.7039,0.094799995,-8.3246,4.9447,-1.5559,0.053040557,-0.061103977,0.17186257,0.718724,-0.250536,-0.635585,0.129219,0
20720,-7.8742323,5.2811017,-2.0071743,0.4434,0.31379998,-0.3962,-8.2985,4.9915,-1.5453999,0.03281219,-0.025115287,0.06801548,0.717462,-0.25307,-0.63575,0.130473,0
20760,-7.700902,5.1649923,-1.9224002,0.68009996,0.192,-0.40559998,-8.2901,5.0053997,-1.5459,0.3147876,-0.25165904,0.029199358,0.7167,-0.255266,-0.635913,0.129591,0
20801,-8.132289,5.112157,-1.7862085,0.24149999,0.0923,-0.2295,-8.2928,5.0071,-1.5258,0.12627457,-0.13404128,0.15039502,0.714069,-0.260576,-0.637671,0.124821,0
20840,-8.390556,5.4712777,-2.0147207,-0.199,0.315,-0.4705,-8.2641,5.059,-1.5102999,-0.086655594,0.027052604,0.23886576,0.712297,-0.263892,-0.638113,0.12571199,0
20880,-7.4668736,5.4454393,-1.8153987,0.70559996,0.3928,-0.3755,-8.2175,5.138,-1.4973999,0.030246556,-0.09524262,0.13932963,0.710962,-0.26624,-0.637848,0.12961,0
20920,-7.3441463,4.7474337,-1.4199245,0.8215,-0.3051,-0.026899999,-8.1961,5.179,-1.4734,0.041207224,-0.07648033,0.095277525,0.709098,-0.268895,-0.63869,0.130189,0
20960,-7.3054757,4.6355386,-1.224117,0.9084,-0.60749996,0.2607,-8.175099,5.2166,-1.4570999,-0.20631537,0.06190683,0.18102555,0.707859,-0.270606,-0.639087,0.13143,0
21000,-7.865489,4.8947153,-1.516564,0.38419998,-0.44869998,-0.0162,-8.1314,5.2932,-1.4252,-0.18331192,0.015411257,0.1929287,0.706821,-0.27031898,-0.639102,0.1374,0
21041,-8.075106,5.1807175,-1.7520193,0.0513,-0.2298,-0.296,-8.0927,5.3587,-1.4004999,0.009145525,0.008307767,0.16297884,0.705624,-0.271111,-0.639168,0.141624,0
21080,-7.735158,5.2335143,-1.9323411,0.21159999,-0.14379999,-0.5123,-8.0569,5.4098997,-1.4096999,0.082693696,0.029932396,0.1375843,0.704968,-0.273674,-0.638393,0.143439,0
21120,-7.5979033,5.064752,-2.0282815,0.4479,-0.37489998,-0.5629,-8.028399,5.4449,-1.4375,0.10976376,-5.76E-04,0.023649212,0.704901,-0.276424,-0.63716,0.143977,0
21161,-7.5867467,4.9305806,-1.9249957,0.42639998,-0.46159998,-0.5467,-8.0265,5.4434,-1.4537,0.052464597,-0.04485496,-0.06986553,0.705033,-0.277766,-0.636776,0.14244,0
21200,-7.909255,4.7856836,-1.7814488,0.24839999,-0.6423,-0.3563,-8.0446,5.4181,-1.448,-0.119083814,-0.014695672,-0.114301614,0.704961,-0.27619,-0.637856,0.141023,0
21240,-8.198627,4.808936,-1.6484653,-0.0142,-0.5363,-0.28579998,-8.0762,5.3808,-1.4106,-0.14840534,-0.01818633,-0.13231342,0.705066,-0.273509,-0.638835,0.141293,0
21280,-8.671512,4.8867383,-1.3869132,-0.4861,-0.5038,-0.0592,-8.1044,5.3483,-1.3725,-0.13868386,0.009215338,-0.0845612,0.705064,-0.269932,-0.640283,0.141626,0
21320,-8.853337,5.345295,-1.4288021,-0.97249997,-0.1461,-0.094299994,-8.1181,5.3339,-1.3471,-0.17619099,0.04696681,-0.011047934,0.70524,-0.267063,-0.641014,0.142877,0
21360,-9.540156,5.7527785,-1.4536252,-1.0382,0.3822,-0.067999996,-8.121099,5.335,-1.3245,-0.16639969,0.003089233,-0.019390607,0.705483,-0.264241,-0.64136,0.145345,0
21401,-9.232951,6.375625,-1.2319126,-1.4054999,0.87649995,0.0036,-8.1167,5.3506,-1.2882999,-0.07180285,-0.08449139,0.12226032,0.704861,-0.262403,-0.6422,0.147962,0
21440,-7.7217503,6.470493,-0.9080824,0.1652,1.1741999,0.32009998,-8.0988,5.3863,-1.2516999,0.04600688,-0.089203775,0.024452062,0.703098,-0.263577,-0.643311,0.149432,0
21480,-7.5522223,5.9380417,-0.8202535,0.6422,0.6717,0.3989,-8.1051,5.3789997,-1.2422999,0.15458381,-0.0598997,-0.15783012,0.70239097,-0.26455,-0.644041,0.147882,0
21520,-7.5506225,5.7564173,-0.9058702,0.5419,0.38149998,0.37849998,-8.132299,5.3357,-1.2513,0.047682393,0.008115781,-0.13843952,0.702921,-0.26426,-0.644533,0.143683,0
21562,-7.7130165,5.501023,-0.9633693,0.4971,0.20549999,0.3529,-8.156099,5.2959,-1.2649,-0.1557881,0.123848565,-0.050125856,0.703877,-0.262775,-0.644224,0.143108,0
21600,-8.2319355,5.3305273,-1.091392,0.14649999,0.1416,0.20969999,-8.1586,5.2911997,-1.2688,-0.15700983,0.07960447,-0.027838001,0.704581,-0.261262,-0.643837,0.144155,0
21640,-7.9528775,5.477196,-1.074173,0.1519,0.1853,0.1775,-8.1442995,5.3160996,-1.2562,-0.038187806,0.07353072,0.13564698,0.705117,-0.258574,-0.643353,0.148476,0
21680,-7.7807436,5.376017,-1.145865,0.3816,0.039499998,0.1619,-8.1092,5.3638,-1.2799,0.07304203,0.09646435,0.13032374,0.70535,-0.260269,-0.641851,0.150887,0
21720,-7.6886816,5.161085,-1.2452339,0.3709,-0.22019999,0.091199994,-8.078899,5.3982,-1.3268,0.036494836,0.15720181,0.07806858,0.706233,-0.262461,-0.639729,0.151972,0
21761,-7.321114,5.087104,-1.2369883,0.72029996,-0.3098,0.106599994,-8.055699,5.4189997,-1.3814,-0.02851868,0.14725342,0.026354471,0.707917,-0.263228,-0.637218,0.153355,0
21800,-7.454395,5.017011,-1.2862035,0.60719997,-0.4597,0.1639,-8.0406,5.4316998,-1.4192,-0.025586527,0.09047787,0.07106981,0.709414,-0.262851,-0.63531,0.154984,0
21840,-7.5907016,5.132201,-1.3051271,0.45859998,-0.33789998,0.13669999,-8.0196,5.457,-1.441,0.017837266,0.009424778,0.083671086,0.709981,-0.263438,-0.634029,0.15663,0
21880,-7.1979184,5.284367,-1.1055945,0.7438,-0.26549998,0.3405,-8.0007,5.4825997,-1.4487,-0.002059489,1.75E-05,0.04124213,0.709778,-0.264726,-0.633488,0.157564,0
21920,-7.5894465,5.506817,-1.1164929,0.5323,8.00E-04,0.3696,-7.9951,5.4909,-1.4483,0.033283427,-0.023719024,-0.059725165,0.709606,-0.265147,-0.633436,0.15784,0
21960,-7.7753615,5.0692143,-0.85427994,0.3048,-0.2685,0.6012,-8.0128,5.466,-1.4446,-0.033143803,0.008028515,-0.10925761,0.7097,-0.264535,-0.633946,0.15639,0
22000,-8.105963,4.9538617,-0.878605,0.1231,-0.5579,0.59529996,-8.0371,5.4318,-1.4386,0.001396263,-0.026302112,-0.13761921,0.710231,-0.262532,-0.63442,0.155431,0
22040,-8.775774,5.593545,-1.1965837,-0.6221,0.089899994,0.29639998,-8.0665,5.3919,-1.4241999,-0.11852531,-0.003403392,-0.06049311,0.710381,-0.260718,-0.635398,0.153794,0
22080,-9.120999,5.615935,-1.2732651,-1.0496,0.1998,0.1249,-8.080299,5.3801,-1.3899,-0.04881686,-0.15496778,-0.0731642,0.70996,-0.258506,-0.636579,0.154588,0
22120,-8.948836,6.2571883,-1.1184179,-0.76379997,0.8681,0.2104,-8.1111,5.3492,-1.3284,0.07646287,-0.21345377,-0.16376424,0.70814,-0.257425,-0.6395,0.152668,0
22160,-9.352605,6.3063846,-1.2166184,-0.9766,1.0361,0.1744,-8.143499,5.3087,-1.2924,0.10365511,-0.1280199,-0.082047924,0.706709,-0.257104,-0.642164,0.148608,0
22200,-9.1718235,5.9925337,-1.5254894,-1.3083,0.77989995,-0.1489,-8.1649,5.2805,-1.273,0.13353515,-0.13472196,0.028867746,0.705981,-0.257871,-0.643156,0.146434,0
22241,-6.571423,5.7936234,-1.5472959,1.5425999,0.63049996,-0.27089998,-8.1719,5.273,-1.2587999,0.1895253,-0.11400491,-0.20575686,0.704563,-0.260337,-0.644379,0.143488,0
22280,-7.0824895,5.1441245,-1.3499371,1.1694,1.00E-03,-0.1013,-8.2204,5.1963997,-1.2616999,0.34759977,-0.19013616,-0.1306379,0.704528,-0.26071,-0.645648,0.13713899,0
22320,-7.73557,5.0751615,-1.4371914,0.7686,-0.095,-0.0827,-8.250999,5.1454,-1.2705,0.18449876,-0.116361104,0.076270886,0.703644,-0.263944,-0.646726,0.130243,0
22360,-8.076198,5.474218,-1.7952394,0.1004,0.1559,-0.4752,-8.2301,5.1788,-1.2702999,-0.0498117,-6.63E-04,0.28677505,0.702275,-0.267542,-0.646873,0.129555,0
22400,-8.04695,5.632034,-1.7785566,0.0523,0.36969998,-0.5397,-8.1624,5.2887,-1.2548,0.015899949,-0.04520403,0.32667327,0.700165,-0.271566,-0.646501,0.13437,0
22440,-7.8974466,5.3048043,-1.4742824,0.2024,0.0071,-0.2874,-8.1066,5.3767,-1.2422999,0.17390461,-0.16058774,0.23705062,0.697899,-0.276186,-0.646447,0.136979,0
22481,-7.6217494,5.075238,-1.2096082,0.4443,-0.3137,-0.0134,-8.0641,5.4426,-1.2319,0.17444566,-0.106639616,0.19362682,0.695151,-0.282096,-0.646923,0.136662,0
22520,-7.6674023,4.819231,-1.1224114,0.3473,-0.6529,0.1104,-8.0259,5.4974,-1.2380999,0.11969468,-0.028989919,0.19467403,0.693298,-0.287171,-0.646734,0.136402,0
22560,-7.761657,4.766463,-1.1900427,0.28579998,-0.80789995,0.0875,-7.9839997,5.5543,-1.2544999,0.041626103,0.04564036,0.19776326,0.692165,-0.291324,-0.645901,0.137289,0
22600,-7.6222186,5.120412,-1.4207864,0.24849999,-0.5658,-0.0955,-7.9368997,5.6162,-1.2774,0.017819813,0.07714355,0.16973327,0.691729,-0.294346,-0.64447397,0.139726,0
22640,-7.53847,5.0166283,-1.5576006,0.369,-0.601,-0.2254,-7.9005,5.6612997,-1.3043,0.07812094,0.02628466,0.042044982,0.691757,-0.296606,-0.643005,0.141563,0
22680,-7.7419195,5.0730643,-1.7427107,0.16669999,-0.6337,-0.3597,-7.8943996,5.6644998,-1.327,0.076113805,-0.012793263,-0.026598819,0.692005,-0.297973,-0.642274,0.14079499,0
22720,-7.6725545,5.367178,-1.6492984,0.34,-0.3482,-0.3418,-7.9009,5.6535997,-1.3349999,-0.05009095,-0.015254177,-0.030176742,0.692128,-0.298372,-0.642213,0.13962,0
22761,-8.575331,5.5950003,-1.5981584,-0.5554,-0.1369,-0.27109998,-7.9076,5.6482,-1.3175,-0.15995942,0.021799162,-0.016702801,0.692041,-0.297077,-0.64278,0.140203,0
22800,-8.637446,5.7093186,-1.3397952,-0.59139997,0.007999999,-0.0645,-7.9108,5.6503997,-1.2887,-0.13920747,0.026005406,-0.06658431,0.691992,-0.294708,-0.643466,0.142279,0
22840,-9.373405,5.7217493,-1.3660358,-1.4291999,0.0558,-0.069,-7.9262996,5.6319,-1.2744,-0.036966074,0.07944739,-0.12676327,0.69268,-0.291845,-0.643805,0.143297,0
22880,-8.412507,6.085103,-1.2778237,-0.5107,0.46949998,0.047399998,-7.9522996,5.5909,-1.2928,-0.002146755,0.09724975,-0.17217673,0.69437,-0.289427,-0.643276,0.142397,0
22920,-8.42531,5.80841,-1.336022,-0.45389998,0.24229999,0.033299997,-7.9796996,5.5435,-1.3277999,-0.07291985,0.2120575,-0.056199603,0.696754,-0.286763,-0.642114,0.14138299,0
22960,-7.916284,6.383727,-1.4710263,-0.1599,0.6953,-0.084699996,-7.9795,5.5319,-1.3764,-0.08470083,0.18901916,-0.050544735,0.699409,-0.284612,-0.639846,0.142893,0
23000,-7.586698,6.349356,-1.3431376,0.46429998,0.94909996,0.0493,-7.9859996,5.5134,-1.4124,-0.07672467,0.1263793,-0.17849483,0.701773,-0.282007,-0.638131,0.144135,0
23041,-6.970316,5.775226,-1.1059488,0.88199997,0.4182,0.2786,-8.021299,5.4558997,-1.4358,-0.003822271,0.07916813,-0.25666812,0.70415,-0.278173,-0.637394,0.143247,0
23080,-7.9280353,5.1597443,-1.1589086,0.3058,-0.1458,0.3434,-8.072599,5.3726997,-1.4613,-0.018901916,0.11351621,-0.19872318,0.706613,-0.274239,-0.636995,0.140453,0
23120,-7.5727353,5.3237853,-1.2037567,0.4592,-0.100099996,0.2785,-8.098599,5.3271,-1.4848,-0.029914944,0.05232497,-0.08545132,0.708818,-0.271222,-0.63613,0.13911399,0
23160,-7.5906825,5.2179327,-1.2935967,0.47739998,-0.064899996,0.2199,-8.106999,5.3115,-1.4948,-0.13044591,0.097354464,0.07267551,0.709477,-0.269921,-0.635794,0.139817,0
23200,-7.784488,5.1071196,-1.4359369,0.22039999,-0.2548,0.0725,-8.0852995,5.3444,-1.4944999,-0.21031217,0.14564772,0.11227703,0.709847,-0.268914,-0.635032,0.143303,0
23241,-7.382741,5.098682,-1.3995832,0.6224,-0.2832,0.0963,-8.046,5.4023,-1.4986,-0.17350318,0.1333257,0.11962487,0.710626,-0.267246,-0.633463,0.149377,0
23280,-7.6784344,4.9881563,-1.3562003,0.43829998,-0.4597,0.1393,-8.0189,5.4414997,-1.5023999,-0.10157816,0.0535467,0.13301153,0.710937,-0.266782,-0.632466,0.152909,0
23320,-7.5360084,5.199239,-1.1791157,0.4614,-0.3365,0.3022,-7.9831,5.4948,-1.4986,-0.15805702,0.08257153,0.19128808,0.710607,-0.267295,-0.631708,0.156638,0
23360,-7.797465,5.531621,-1.1783017,0.1399,-0.1416,0.3326,-7.9361997,5.5646996,-1.4898,-0.17587683,0.09480628,0.15076154,0.710189,-0.26757,-0.630742,0.161866,0
23400,-7.4033694,5.838472,-1.12561,0.4678,0.2074,0.3295,-7.9012,5.6176996,-1.4768,-0.066060714,-0.011711159,0.022689281,0.709906,-0.267081,-0.630083,0.166416,0
23440,-7.2099376,5.5914283,-0.9676406,0.63449997,0.0273,0.4631,-7.9012,5.6212,-1.4634,0.0368439,-0.059812434,-0.061418135,0.709557,-0.266726,-0.630495,0.166915,0
23480,-7.8774023,5.3433795,-0.87959135,0.2549,-0.2677,0.61759996,-7.9237,5.5927,-1.4512,0.023945916,-0.10009463,-0.14772467,0.709284,-0.266281,-0.631508,0.164941,0
23521,-8.319822,5.6944366,-0.90796745,-0.32819998,0.0594,0.5331,-7.9582996,5.5499,-1.4255999,-0.104911745,-0.014433873,-0.05199336,0.708986,-0.264619,-0.633089,0.162827,0
23560,-8.522363,5.706455,-1.0007763,-0.4375,0.1625,0.4468,-7.9666996,5.5449,-1.398,-0.09450958,-0.025743606,-0.03324852,0.708709,-0.26270398,-0.63391,0.163937,0
23600,-9.12641,6.030726,-1.2859353,-1.2385,0.3403,0.132,-7.9796996,5.5337996,-1.3676,0.11136946,-0.14451326,-0.11606439,0.708063,-0.26149,-0.635136,0.163922,0
23640,-8.884672,6.2435703,-1.2656612,-0.7486,0.8516,0.088599995,-8.0184,5.4834,-1.3438,0.17662732,-0.2218488,-0.20427333,0.707154,-0.261632,-0.637185,0.159611,0
23680,-8.750118,5.8640604,-1.2948226,-0.8361,0.5158,0.0492,-8.0682,5.4171,-1.3143,0.11020009,-0.18003072,-0.07483972,0.705965,-0.261964,-0.639784,0.153828,0
23720,-7.8526273,5.8598757,-1.4384459,-0.0088,0.3655,-0.1626,-8.0914,5.3908997,-1.2789,-0.006981317,-0.13325588,-0.07553785,0.704453,-0.262588,-0.641886,0.150912,0
23760,-7.635435,6.214993,-1.7276464,0.46949998,0.8573,-0.4416,-8.1187,5.3599997,-1.2353,0.047088984,-0.13976596,-0.11943288,0.703245,-0.261591,-0.644054,0.149031,0
23801,-7.27709,5.5271006,-1.2905896,1.0006,0.40649998,-0.11229999,-8.1497,5.3205,-1.2017,0.13657202,-0.16563174,-0.088296205,0.702118,-0.261348,-0.646103,0.145865,0
23840,-7.778091,5.352171,-1.2486624,0.54429996,0.0256,-0.022599999,-8.1739,5.2896,-1.1737,0.06810275,-0.06682865,-0.025953045,0.700714,-0.26238,-0.648015,0.142237,0
23880,-7.7747583,5.607709,-1.497803,0.3308,0.3026,-0.3117,-8.1761,5.2871,-1.169,-0.016685348,0.083671086,0.11498229,0.700257,-0.263147,-0.648404,0.141294,0
23920,-7.46175,5.352908,-1.551912,0.75259995,0.12539999,-0.3667,-8.1468,5.3269997,-1.1925,0.09705776,0.00715585,0.11772246,0.700558,-0.264611,-0.647043,0.143296,0
23960,-7.484217,4.871664,-1.3598205,0.6009,-0.45549998,-0.15869999,-8.1226,5.3589,-1.2142,0.160675,-0.06295402,0.10238101,0.700159,-0.26774,-0.646226,0.143121,0
24000,-7.4674287,4.8833385,-1.2171068,0.6401,-0.5018,0.0017,-8.103,5.3855,-1.2275,0.0789587,-0.043441243,0.110933125,0.699294,-0.271246,-0.645921,0.142121,0
24040,-7.674719,4.978704,-1.2264346,0.45029998,-0.4576,0.0326,-8.0799,5.4198,-1.229,0.06510078,-0.047944196,0.14090043,0.698278,-0.273992,-0.645814,0.142332,0
24081,-7.9629903,4.9752564,-1.2793657,0.105799995,-0.5421,-0.0056,-8.0492,5.4649997,-1.2299,0.051225413,-0.001623156,0.17578956,0.69714,-0.276961,-0.645583,0.143213,0
24120,-7.9111032,5.0690517,-1.4959164,0.0982,-0.4655,-0.19739999,-8.012199,5.516,-1.2441,0.1113171,-0.001169371,0.10906562,0.696409,-0.280086,-0.644727,0.144538,0
24160,-7.763343,5.065288,-1.5795316,0.2077,-0.4872,-0.2857,-7.9941998,5.5376,-1.2637,0.09374163,0.022340214,0.03621558,0.696205,-0.282365,-0.643994,0.144356,0
24200,-7.761188,5.225891,-1.7837089,0.1854,-0.3568,-0.4622,-7.9915,5.5347,-1.2931,-0.04728097,0.08553859,-0.08543386,0.697086,-0.28285,-0.642919,0.143947,0
24240,-8.012723,5.2732773,-1.68819,0.1828,-0.23099999,-0.3705,-8.0085,5.507,-1.3062999,-0.14276794,0.042010076,-0.18175858,0.698473,-0.28061,-0.642404,0.143907,0
24281,-8.350659,5.124933,-1.6227708,-0.251,-0.332,-0.33499998,-8.0355,5.4707,-1.2928,-0.2639985,0.11543608,-0.15706217,0.699348,-0.277178,-0.642914,0.144031,0
24320,-8.999307,5.2111235,-1.5821842,-0.6832,-0.33359998,-0.26729998,-8.0643,5.4330997,-1.2722,-0.20120156,0.124023095,-0.15065682,0.701344,-0.269895,-0.643225,0.146744,0
24360,-9.223796,5.6578145,-1.6605896,-1.183,0.19129999,-0.36519998,-8.094,5.3886,-1.2724,-0.12531464,0.14152876,-0.11028735,0.703221,-0.265251,-0.642763,0.148244,0
24401,-8.986196,5.7945714,-1.638132,-0.8894,0.5092,-0.3152,-8.113,5.3550997,-1.293,-0.055902895,0.07527605,-0.08147197,0.705326,-0.261617,-0.641755,0.149066,0
24440,-8.067962,5.399825,-1.1547713,-0.038599998,0.0821,0.078999996,-8.120399,5.3409,-1.3048999,-0.1693842,0.117268674,-0.040142573,0.706434,-0.259774,-0.641134,0.149713,0
24480,-7.8568316,5.7446284,-1.1305516,0.4164,0.3421,0.1926,-8.1244,5.3359,-1.3008,-0.27773425,0.14332643,-0.07705629,0.707564,-0.256275,-0.64065,0.152455,0
24520,-8.106288,5.7144804,-1.05455,0.0844,0.4439,0.20699999,-8.1356,5.3223,-1.2857,-0.22404791,0.07808603,-0.14503686,0.708835,-0.25121,-0.64043,0.155864,0
24560,-7.815785,5.688183,-0.9303868,0.2598,0.3755,0.32729998,-8.164,5.2827997,-1.2688,-0.18263125,0.10988593,-0.18390535,0.710064,-0.245968,-0.640733,0.157381,0
24601,-7.832918,5.2226825,-0.7983226,0.34649998,0.0567,0.47779998,-8.1918,5.2388,-1.2721,-0.20736256,0.23551473,-0.05656612,0.711971,-0.240746,-0.640284,0.158661,0
24640,-8.026293,5.2667556,-0.9781367,0.1748,-0.020399999,0.40649998,-8.1868,5.2374997,-1.3088,-0.10901327,0.21238911,0.05682792,0.714513,-0.237068,-0.637968,0.162068,0
24680,-8.0278635,5.4094496,-1.1467556,0.110199995,0.1379,0.1972,-8.1615,5.2655,-1.3543,0.008866273,0.13393657,0.14526375,0.716376,-0.236345,-0.635352,0.165143,0
24720,-7.575168,5.3701277,-1.0991014,0.4714,0.057499997,0.29189998,-8.1206,5.3164,-1.4001,0.049008846,0.08564331,0.17997836,0.71733,-0.238376,-0.632878,0.167565,0
24760,-7.495537,5.241482,-1.1362402,0.6052,-0.124299996,0.34039998,-8.0779,5.3708997,-1.4387,0.024452062,0.09894271,0.16603318,0.717752,-0.241225,-0.630795,0.169527,0
24800,-7.392969,5.2035294,-1.3051368,0.6325,-0.2351,0.2101,-8.0365,5.4228997,-1.4751999,0.008639379,0.08943067,0.15447909,0.718266,-0.243536,-0.628711,0.171769,0
24840,-7.6593003,5.047159,-1.4086908,0.4183,-0.391,0.100099996,-7.9988,5.4709,-1.5024999,0.011117747,0.016528267,0.15557864,0.718546,-0.245555,-0.627011,0.173923,0
24881,-7.5731664,5.157992,-1.4043047,0.3821,-0.3933,0.1144,-7.9625998,5.5221996,-1.507,-0.012479104,-0.039566614,0.16278686,0.717898,-0.247909,-0.62626797,0.175929,0
24920,-7.5392838,5.119828,-1.2519854,0.311,-0.47309998,0.1753,-7.9308,5.5726,-1.4893999,0.042044982,-0.11576769,0.10636036,0.716448,-0.250282,-0.626478,0.177721,0
24960,-7.61268,5.2559624,-1.1256005,0.4159,-0.3608,0.33589998,-7.9179997,5.5976,-1.4635999,0.0776497,-0.124180175,0.001064651,0.714718,-0.252595,-0.627583,0.177515,0
25000,-7.7965074,5.3247814,-0.9765087,0.2582,-0.285,0.4712,-7.9269996,5.5903997,-1.4419999,0.063669614,-0.10075786,-0.04909611,0.713509,-0.253829,-0.628963,0.175727,0
25040,-8.277924,5.610093,-0.96169335,-0.20729999,-0.042099997,0.4951,-7.9419,5.5731,-1.4267,0.047577675,-0.06757915,-0.025272368,0.712771,-0.254362,-0.630122,0.173787,0
25081,-8.573876,5.778866,-1.1940267,-0.6301,0.1827,0.2667,-7.9505997,5.5639,-1.4140999,0.052516956,-0.07216936,-0.024207717,0.712167,-0.254793,-0.630959,0.172594,0
25120,-8.94129,5.896143,-1.3305154,-0.8612,0.3669,0.0797,-7.9645996,5.5464997,-1.4036,0.17685421,-0.15449655,-0.10770427,0.711547,-0.255473,-0.63194,0.170543,0
25160,-8.747953,6.023955,-1.099044,-1.2872,0.39119998,0.1892,-7.9898,5.5123,-1.3953999,0.2692694,-0.21224949,-0.13161528,0.710825,-0.256659,-0.63329,0.166723,0
25201,-8.957254,6.4111357,-1.3722128,-1.3026,0.8638,0.19739999,-8.033299,5.4516,-1.384,0.0765676,-0.022375122,-0.06033603,0.709764,-0.258458,-0.63542,0.160234,0
25240,-7.7600293,5.9559503,-1.7323868,0.013499999,0.68509996,-0.2924,-8.0648,5.4048,-1.3844,0.09407324,-0.06197664,-0.12843879,0.70971197,-0.25864,-0.636365,0.156371,0
25280,-7.2947307,5.5942054,-1.5912535,0.7219,0.25239998,-0.2427,-8.096499,5.3568997,-1.3851,0.15577063,-0.10828023,-0.13377948,0.709846,-0.258347,-0.637185,0.152869,0
25320,-7.3846374,5.6821494,-1.3432716,0.9633,0.4024,0.0338,-8.132,5.3048997,-1.3773,0.048153635,-0.16009904,-0.11625638,0.709479,-0.258582,-0.638528,0.148513,0
25360,-7.519211,5.5669117,-1.4238604,0.56549996,0.2625,-0.083,-8.1558,5.2781997,-1.3389,-0.07731809,-0.007016223,0.047717303,0.708302,-0.258021,-0.640495,0.146621,0
25400,-7.6867,5.6763077,-1.6068254,0.53429997,0.3381,-0.2386,-8.144199,5.3006,-1.3205999,-0.030473448,0.024644049,0.08569567,0.707691,-0.257889,-0.640822,0.148365,0
25441,-7.4710584,5.60067,-1.6104933,0.62049997,0.3356,-0.31239998,-8.1226,5.3325,-1.3252,0.061522856,0.00996583,0.14857988,0.707446,-0.259016,-0.640282,0.149892,0
25480,-7.5299273,5.2643228,-1.4173578,0.5794,-0.0902,-0.110199995,-8.0913,5.376,-1.3411,0.16341518,-0.069673546,0.13074261,0.70685,-0.262186,-0.639489,0.150579,0
25520,-7.6058807,5.160051,-1.2204875,0.4966,-0.23089999,0.1179,-8.0673,5.4087996,-1.3535,0.15608479,-0.083671086,0.11393509,0.705752,-0.266322,-0.639239,0.149527,0
25560,-7.895867,5.0672894,-1.1895351,0.2105,-0.36879998,0.1731,-8.0461,5.4389,-1.3597,0.122207955,-0.068608895,0.12632693,0.704523,-0.270137,-0.639232,0.148506,0
25600,-7.724767,5.096537,-1.1954057,0.30249998,-0.3852,0.17099999,-8.0203,5.4749,-1.3673999,0.085014984,-0.013875367,0.13000958,0.703435,-0.273677,-0.63899,0.148222,0
25640,-7.7898607,5.056133,-1.4114201,0.2171,-0.4588,0.0409,-7.9937997,5.5092998,-1.3844,0.041765727,0.08045968,0.08016297,0.70301497,-0.27633,-0.638198,0.148707,0
25681,-7.636785,5.0283885,-1.5323944,0.376,-0.5047,-0.119799994,-7.9761996,5.5257,-1.4196999,0.10817551,0.044121925,-0.03700098,0.70378,-0.277634,-0.636683,0.149153,0
25720,-7.626136,4.980725,-1.7355186,0.3725,-0.50479996,-0.19749999,-7.9824996,5.5062,-1.4597,0.12060225,0.062430426,-0.064594634,0.70493,-0.278387,-0.635518,0.147274,0
25760,-8.107743,4.933856,-1.9322453,0.0308,-0.6041,-0.3796,-7.9937997,5.4779997,-1.5031999,0.093305305,0.023614304,-0.08571312,0.706335,-0.278811,-0.634282,0.145053,0
25800,-8.318127,5.515417,-2.010191,-0.0903,-0.0346,-0.4445,-8.0099,5.4479,-1.5265,-0.066985734,0.038240165,-0.11126474,0.707305,-0.278484,-0.63377,0.143183,0
25840,-8.529573,5.3348947,-1.7987638,-0.41979998,-0.0222,-0.3363,-8.0335,5.4158,-1.517,-0.21835814,0.04569272,-0.19545943,0.708154,-0.275439,-0.634129,0.143286,0
25880,-9.817635,5.4547577,-1.6323284,-1.9575,-0.0594,-0.2269,-8.0746,5.3648,-1.4793999,-0.2144137,-0.025429446,-0.14484487,0.708996,-0.269728,-0.635469,0.144045,0
25921,-8.353484,6.1642075,-1.1367191,-0.3636,0.83019996,0.19489999,-8.1093,5.3283,-1.4208,-0.15892968,-0.11592477,-0.14501941,0.708622,-0.265131,-0.637645,0.144799,0
25960,-8.721799,5.9036417,-1.0603058,-0.538,0.63729995,0.312,-8.1407995,5.2956,-1.3613,-0.028588492,-0.045989424,-0.040160026,0.707724,-0.26179,-0.640028,0.144759,0
26000,-8.209182,6.0175962,-1.1371213,-0.17199999,0.7309,0.2149,-8.1537,5.2804,-1.3427,0.10550515,-0.11794935,-0.12973033,0.707291,-0.261147,-0.64094,0.143999,0
26040,-7.5417833,5.797761,-0.8765939,0.5998,0.7542,0.3953,-8.1902,5.2276998,-1.3269,0.12747885,-0.17540559,-0.22396065,0.70684,-0.26083,-0.642446,0.140021,0
26080,-7.3922987,5.3337355,-0.6503514,0.7515,0.1653,0.66179997,-8.2438,5.1498,-1.2991999,0.041346848,-0.024836035,-0.17779669,0.706279,-0.25964,-0.644663,0.134777,0
26121,-7.71453,4.97224,-0.7826454,0.7007,-0.0444,0.5959,-8.2713995,5.1047,-1.3019999,-0.03642502,0.12873548,-0.13056809,0.706944,-0.258099,-0.644989,0.132678,0
26160,-8.002466,5.057157,-1.2002516,0.2472,-0.055999998,0.2201,-8.2887,5.0671997,-1.3379999,-0.047787115,0.16252506,-0.044226643,0.70915097,-0.255591,-0.643632,0.132339,0
26200,-8.002945,5.1837244,-1.5406497,0.1313,0.059499998,-0.118,-8.2708,5.0790997,-1.4018999,0.001256637,0.18350391,0.17479472,0.71167,-0.254958,-0.640678,0.134356,0
26241,-7.7551064,5.2023606,-1.6453624,0.46899998,0.0524,-0.1586,-8.2261,5.1352997,-1.4593999,-0.03269002,0.13814281,0.12308062,0.71306,-0.256816,-0.637716,0.137508,0
26280,-7.660449,5.214648,-1.6160095,0.46649998,0.0517,-0.1401,-8.1942,5.1751,-1.4975,-0.020036379,0.09297369,0.047926743,0.714109,-0.257689,-0.635615,0.140131,0
26320,-7.289894,4.8001347,-1.3357539,0.88479996,-0.24679999,0.1178,-8.181,5.1893997,-1.5202,0.004974188,0.03508112,0.021345377,0.714859,-0.257851,-0.634452,0.141276,0
26360,-7.6387196,4.3805175,-1.2312806,0.5919,-0.8152,0.3179,-8.1723995,5.1988,-1.5338999,0.021903882,0.029862583,0.07271042,0.715178,-0.258319,-0.633807,0.1417,0
26400,-7.8579044,4.5849824,-1.285897,0.3445,-0.7176,0.2836,-8.1505995,5.2286,-1.5487,-0.048136182,0.060039327,0.11047934,0.715218,-0.259666,-0.632931,0.142945,0
26441,-7.7458744,5.0218287,-1.47049,0.35209998,-0.3479,0.1019,-8.128799,5.2611,-1.5532999,-0.03799582,-0.006387905,0.03000221,0.715176,-0.260229,-0.632279,0.145005,0
26480,-7.6698155,5.1423335,-1.3321722,0.4472,-0.12109999,0.1673,-8.1258,5.2696,-1.5403,0.021345377,-0.08953539,-0.03647738,0.714738,-0.260159,-0.63266,0.145625,0
26520,-8.325291,5.0060077,-1.0377811,0.0501,-0.25259998,0.4459,-8.1406,5.2539997,-1.5149,0.05312782,-0.14676474,-0.09098402,0.713818,-0.260195,-0.634014,0.144177,0
26560,-8.78197,5.083321,-0.94086385,-0.5516,-0.1936,0.5268,-8.1664,5.2244,-1.4781,-0.01982694,-0.08422959,-0.05215044,0.712614,-0.259891,-0.636016,0.141841,0
26600,-9.229695,5.194412,-0.93097097,-0.8516,-0.0532,0.525,-8.1802,5.2114997,-1.4469,-0.07382743,-0.045989424,-0.034697145,0.711821,-0.259003,-0.637371,0.141372,0
26640,-9.444819,5.750806,-1.1612452,-1.4406999,0.3539,0.3148,-8.1893,5.2064,-1.4132,-0.054785885,-0.107878804,-0.005811947,0.711,-0.257938,-0.638652,0.141663,0
26681,-9.779663,5.820496,-1.409457,-1.5608,0.6965,-0.015299999,-8.1968,5.207,-1.3672999,-0.037611846,-0.099571034,0.056112334,0.709517,-0.257487,-0.640462,0.141749,0
26720,-8.467774,5.6299076,-1.1753806,-0.5632,0.4231,0.1769,-8.184199,5.2353,-1.3341,-0.10053097,-0.040648717,0.080372415,0.708077,-0.258159,-0.641486,0.143092,0
26760,-7.768945,6.015681,-1.5476216,0.2699,0.6933,-0.1593,-8.1741,5.2592,-1.3017,-0.073548175,-0.010890855,-0.023823744,0.707091,-0.257672,-0.642304,0.145162,0
26800,-6.725983,5.591725,-1.2452817,1.4545,0.5043,-0.003,-8.1818,5.2521,-1.2815,0.11508701,-0.15234978,-0.056286868,0.706615,-0.256977,-0.643124,0.145079,0
26840,-7.5492816,4.838835,-1.0726119,0.73539996,-0.3488,0.1774,-8.198299,5.2325,-1.2560999,0.017558012,-0.06736971,0.045657814,0.705259,-0.258179,-0.644762,0.142245,0
26880,-7.978361,5.0288005,-1.5607321,0.4064,-0.3073,-0.16049999,-8.1831,5.2597,-1.2418,-0.31134927,0.21453588,0.18455112,0.704582,-0.258611,-0.644966,0.14388,0
26920,-8.208702,5.5769672,-2.0709364,-0.2174,0.0806,-0.779,-8.1279,5.3423,-1.2508999,-0.30487412,0.33012903,0.30419344,0.705594,-0.256743,-0.642697,0.15218,0
26961,-6.9648957,5.7675076,-2.0223248,0.8946,0.33699998,-0.6972,-8.0436,5.4586,-1.2933999,-0.12594296,0.12875293,0.28345892,0.70718,-0.256599,-0.638643,0.161822,0
27000,-6.873102,5.3350763,-1.7057154,1.1866,-0.1722,-0.37809998,-7.9825997,5.5462,-1.2987,0.044820055,-0.04775221,0.15203562,0.706533,-0.258901,-0.637159,0.166758,0
27040,-7.3325205,5.2250385,-1.5524865,0.7173,-0.3405,-0.283,-7.9546,5.587,-1.2958,0.12623966,-0.09641199,0.08361872,0.705336,-0.261857,-0.637127,0.167331,0
27080,-7.6662436,5.1546874,-1.4576379,0.28919998,-0.4813,-0.13669999,-7.9384,5.6102,-1.2949,0.036599554,-0.02008874,0.11568042,0.704218,-0.264767,-0.637365,0.166553,0
27121,-7.9333024,5.3483405,-1.5507915,-0.013499999,-0.3148,-0.2437,-7.9101996,5.6496,-1.2959,-0.024923302,0.013212143,0.11725122,0.703591,-0.266521,-0.636909,0.16814,0
27160,-7.8849773,5.551972,-1.5545168,-0.015199999,-0.1585,-0.2547,-7.8889,5.6796,-1.2947,0.04717625,-0.03244567,0.001186824,0.703074,-0.267767,-0.636617,0.169424,0
27200,-7.5264506,5.469506,-1.455033,0.23619999,-0.1786,-0.1839,-7.8952,5.6703,-1.2968,0.16526523,-0.07778932,-0.12351695,0.702889,-0.268451,-0.636894,0.168067,0
27240,-8.079981,5.1829967,-1.5200499,0.1663,-0.39659998,-0.16939999,-7.9332,5.6137,-1.3112999,0.2268579,-0.09798279,-0.23858652,0.703195,-0.269027,-0.637605,0.163096,0
27281,-8.286715,5.2940106,-1.6536463,-0.2791,-0.2841,-0.29549998,-7.9877996,5.5306997,-1.3323,0.15810938,-0.05094616,-0.17802358,0.704022,-0.268857,-0.638352,0.15675999,0
27320,-8.872395,5.4688454,-1.5583189,-0.5999,-0.022699999,-0.2198,-8.029799,5.4653997,-1.3491,0.04740314,0.00413643,-0.13058554,0.704768,-0.268497,-0.638828,0.152014,0
27360,-9.498755,6.0282454,-1.683459,-1.7743,0.4041,-0.3387,-8.0518,5.4307,-1.3578,-0.021799162,0.005567601,-3.14E-04,0.705501,-0.267391,-0.63888,0.150336,0
27400,-8.867826,6.6803784,-1.5529654,-0.895,1.2343,-0.1758,-8.0486,5.4340997,-1.3636999,-0.027611108,0.08806931,0.024102997,0.705901,-0.266898,-0.638464,0.151099,0
27440,-7.8612466,6.4417243,-1.4696376,4.00E-04,1.1231999,-0.1002,-8.0419,5.4372997,-1.3902999,0.20074777,0.013456488,-0.061103977,0.706814,-0.267023,-0.637317,0.151452,0
27481,-6.7735224,5.7277637,-1.2049922,1.1565,0.4481,0.21509999,-8.0604,5.3966,-1.4409,0.2824641,-0.014503686,-0.22518238,0.708011,-0.268682,-0.636297,0.147157,0
27520,-7.772,5.22546,-1.3425916,0.4346,-0.0165,0.2382,-8.1132,5.3023,-1.4934,0.124773584,0.057560958,-0.25905922,0.709974,-0.268481,-0.635727,0.140376,0
27560,-7.438181,5.092831,-1.3580966,0.7662,-0.11669999,0.2051,-8.160399,5.2162,-1.5388,0.05127777,0.04707153,-0.21547835,0.712467,-0.266176,-0.634832,0.136114,0
27600,-8.134607,5.2166395,-1.4812448,0.0618,0.0127,0.097899996,-8.2013,5.1454997,-1.5590999,-0.001047198,-0.053668875,-0.12629202,0.714108,-0.263707,-0.634677,0.133006,0
27640,-7.7166367,5.35378,-1.3749135,0.5476,0.2627,0.15779999,-8.2262,5.1113,-1.5404999,-0.11218976,0.011187561,0.004328417,0.714061,-0.262039,-0.635698,0.131679,0
27680,-7.761226,5.2323265,-1.304524,0.46339998,0.062099997,0.19999999,-8.2205,5.1254997,-1.5238999,-0.1110553,0.03790855,0.072658055,0.71389097,-0.260875,-0.635952,0.133669,0
27721,-7.838875,5.238906,-1.2841828,0.41799998,0.0534,0.23979999,-8.2045,5.1538,-1.5145999,-0.08702212,0.04118977,0.027070057,0.713773,-0.260297,-0.635763,0.136297,0
27760,-7.982719,5.144498,-1.2272103,0.21519999,0.031799998,0.24509999,-8.1978,5.1657,-1.5101999,0.010157816,0.009250245,0.024102997,0.713843,-0.259666,-0.635632,0.13774,0
27800,-7.849946,4.9150853,-1.1020894,0.435,-0.2504,0.40699998,-8.1921,5.1733,-1.5151,0.06316347,-0.03122394,0.029304078,0.713763,-0.260373,-0.635431,0.137745,0
27840,-7.690329,4.930169,-1.0653623,0.47039998,-0.25579998,0.4581,-8.1883,5.1787,-1.5172,0.057281706,-0.046076693,0.017034413,0.713356,-0.261687,-0.635507,0.137015,0
27880,-7.706964,5.031166,-1.101237,0.46949998,-0.2287,0.4553,-8.1873,5.1809998,-1.5144,0.010855948,-0.010698868,0.028029988,0.712916,-0.262609,-0.635763,0.136348,0
27921,-7.571519,4.9006534,-1.0530561,0.6897,-0.20729999,0.466,-8.182,5.1891,-1.5152999,0.004694936,0.002373648,-0.025062928,0.71279,-0.263045,-0.635671,0.136595,0
27960,-8.103281,5.183964,-1.1768842,0.1778,-0.1355,0.38959998,-8.189899,5.1762,-1.5173,0.040212385,-0.019949114,-0.07014478,0.712976,-0.262732,-0.635744,0.135883,0
28000,-8.311691,5.3737955,-1.2740122,-0.1226,0.18969999,0.253,-8.203199,5.1549,-1.5180999,0.02115339,0.007661996,-0.012461651,0.713125,-0.26240098,-0.636001,0.134533,0
28040,-8.867069,5.0226235,-1.2768373,-0.47219998,-0.0482,0.24929999,-8.2066,5.1475997,-1.5241,0.07276278,-0.033370696,-0.0429351,0.713293,-0.262534,-0.635891,0.133906,0
28080,-9.546449,5.148999,-1.3481941,-1.1834999,-0.0257,0.1986,-8.221,5.1250997,-1.5224999,0.09604547,-0.1497318,-0.0877377,0.713095,-0.262911,-0.636394,0.131813,0
28120,-9.157822,5.687522,-1.2944683,-0.85499996,0.57519996,0.21319999,-8.245399,5.0929,-1.4979,0.030037116,-0.08906415,-0.08196066,0.712146,-0.2631,-0.637966,0.128933,0
28161,-9.00917,5.6377606,-1.3784759,-0.8422,0.52279997,0.12879999,-8.2583,5.0766997,-1.4821,-0.04612905,0.013980087,-0.032951817,0.711763,-0.262608,-0.638788,0.127981,0
28200,-8.832833,5.546551,-1.7580241,-0.67939997,0.4667,-0.2355,-8.274,5.0544,-1.4706999,0.026616272,-0.072221726,-0.09431759,0.71202,-0.260798,-0.639283,0.127775,0
28240,-7.1293387,5.539656,-1.5654918,0.9605,0.5952,-0.17629999,-8.295899,5.0239,-1.4514999,0.13020156,-0.17376497,-0.0776497,0.711515,-0.260299,-0.640459,0.125704,0
28280,-7.3110304,5.021704,-1.3374681,1.0461999,0.0712,0.0453,-8.3227,4.9888997,-1.4182,0.15940093,-0.24877924,-0.10082767,0.709961,-0.261275,-0.642533,0.121822,0
28320,-7.7637067,4.9692326,-1.256726,0.7671,0.0257,0.1274,-8.3574,4.9462,-1.3629999,0.16147786,-0.27604127,-0.05667084,0.707501,-0.262561,-0.64564,0.116844,0
28360,-8.03269,4.8760405,-1.410453,0.38369998,-0.0162,-0.0547,-8.3761,4.9293,-1.3083999,0.047088984,-0.0919614,0.13632767,0.704745,-0.264659,-0.648457,0.1131,0
28401,-8.537771,4.9260893,-1.7120266,-0.007999999,-0.14829999,-0.3184,-8.347199,4.983,-1.2897999,-0.01802925,0.037035886,0.208881,0.702947,-0.267638,-0.648969,0.11434,0
28440,-8.114103,5.373738,-1.8507754,0.0067,0.2426,-0.561,-8.3031,5.0529,-1.3022,-0.006108652,0.09361946,0.25038493,0.702422,-0.270181,-0.647908,0.117557,0
28480,-7.5967736,5.1240225,-1.674859,0.5822,0.057299998,-0.3955,-8.250999,5.1303,-1.3303,0.08702212,0.040404372,0.16399114,0.702183,-0.273438,-0.646185,0.120886,0
28520,-7.586507,4.7919087,-1.4952651,0.638,-0.3199,-0.15879999,-8.2185,5.1742,-1.3612,0.14189526,-0.013386675,0.09245009,0.701988,-0.276795,-0.644843,0.121546,0
28560,-7.5658016,4.551301,-1.3685927,0.6777,-0.6479,0.0317,-8.1994,5.1981997,-1.385,0.057752945,0.038519416,0.105732046,0.701649,-0.27983,-0.644026,0.120884,0
28600,-7.911659,4.7489276,-1.6760657,0.39699998,-0.5147,-0.2075,-8.1736,5.2317,-1.4104999,0.025010569,0.06883579,0.1065349,0.701751,-0.281888,-0.642825,0.121896,0
28640,-7.986415,4.767957,-1.85429,0.0999,-0.5524,-0.3974,-8.151199,5.2595997,-1.4363999,0.06407104,0.032567844,0.019285887,0.702057,-0.283465,-0.641601,0.12292,0
28681,-7.8484707,4.879239,-1.9416785,0.3126,-0.36429998,-0.48139998,-8.1481,5.2578,-1.4603,0.034924038,0.057072267,-0.054558992,0.702617,-0.284224,-0.640764,0.122335,0
28720,-8.184665,4.624056,-1.8457379,0.0563,-0.5406,-0.3692,-8.1566,5.238,-1.4842,-0.002775074,0.050527282,-0.06949901,0.703698,-0.283694,-0.639968,0.121517,0
28760,-8.7170105,4.89235,-1.8799272,-0.44309998,-0.45029998,-0.36049998,-8.1671,5.2163,-1.5026,-0.036023594,0.07143632,-0.071907565,0.704859,-0.282468,-0.639306,0.121125996,0
28800,-9.000781,5.1916256,-1.7345608,-0.71709996,-0.038,-0.24949999,-8.1775,5.1963,-1.5156,-0.08658578,0.07435103,-0.045186576,0.706,-0.280784,-0.638772,0.121219,0
28840,-9.851345,5.2520933,-1.6421639,-1.6079999,0.015199999,-0.1157,-8.179,5.192,-1.5218999,-0.094544485,0.071593404,0.0543321,0.706939,-0.278987,-0.63826,0.122579,0
28881,-9.128181,5.9501467,-1.4824418,-0.9953,0.5901,0.032199997,-8.164,5.2153,-1.5228,-0.058398716,0.03070034,0.06914994,0.707126,-0.278593,-0.637803,0.124758996,0
28920,-8.042334,6.1752114,-1.5634904,-0.1033,0.93289995,-0.0221,-8.144,5.2451997,-1.5273,-0.03440044,0.14767231,0.08815658,0.707206,-0.278802,-0.63719,0.12695199,0
28960,-7.728244,5.602049,-1.6789484,0.53069997,0.40089998,-0.0646,-8.120999,5.2672,-1.5731,0.13171999,0.13685127,-0.028029988,0.708639,-0.279349,-0.635014,0.128648,0
29000,-7.3439837,5.478221,-1.7341394,0.5268,0.2113,-0.0997,-8.1172,5.2509,-1.6458,0.08286823,0.18959512,-0.040770892,0.710867,-0.280322,-0.632373,0.127243,0
29040,-7.2909093,5.3439255,-1.6061933,0.9086,0.16399999,0.1267,-8.1165,5.2296,-1.7154,-0.090268426,0.17039649,-0.07737044,0.71356,-0.279809,-0.629658,0.12676,0
29080,-7.375032,5.261996,-1.4926316,0.85349995,0.0734,0.23979999,-8.1202,5.2123,-1.7500999,-0.093636915,0.10723303,-0.0646819,0.715813,-0.277204,-0.627986,0.12807,0
29121,-7.8279095,5.272894,-1.3048687,0.3189,0.046,0.449,-8.125,5.2005,-1.7630999,-0.085154615,0.058189277,0.026371924,0.717079,-0.275126,-0.62724197,0.129111,0
