time(ms),acc.x,acc.y,acc.z,acclinear.x,acclinear.y,acclinear.z,gravity.x,gravity.y,gravity.z,gyroscope.x,gyroscope.y,gyroscope.z,RV.x,RV.y,RV.z,RV.cos,RV.heading
0,-1.7788248,-9.462862,2.0585537,-0.0796,-0.0276,-0.384,-1.6265999,-9.3671,2.4041998,-0.00577704,-0.05183628,-0.015917404,-0.261146,-0.556075,0.761058,0.208261,0
41,-1.5562502,-9.431067,2.3825467,0.1231,-0.042999998,-0.0657,-1.6235,-9.3713,2.3899,-0.01569051,-0.003508112,0,-0.261191,-0.556709,0.760607,0.20816,0
80,-1.540822,-9.349961,2.3273842,0.1138,0.046499997,-0.0309,-1.624,-9.3726,2.3845,0.008080875,0.07918559,-0.012601277,-0.261522,-0.556802,0.760355,0.208414,0
120,-1.646052,-9.51292,2.2803814,-0.022,-0.0806,-0.1169,-1.6254,-9.3729,2.3822,-0.007295476,0.029618237,-0.009738937,-0.262357,-0.556512,0.760016,0.209373,0
160,-1.6259503,-9.439801,2.4385328,0.085,-0.089099996,0.0444,-1.6247,-9.3742,2.3776999,8.03E-04,0.02766347,-0.009686577,-0.262665,-0.556572,0.759768,0.20972499,0
200,-1.6551882,-9.409155,2.2843268,-0.0022,-0.020499999,-0.063,-1.6256,-9.3742,2.3773,0.01569051,0.03541273,-4.71E-04,-0.263054,-0.556407,0.759632,0.21017,0
240,-1.7322145,-9.424037,2.2748365,-0.1182,-0.0208,-0.1118,-1.6272999,-9.373899,2.3771,-0.016563175,0.004276057,0.011117747,-0.263354,-0.556276,0.759551,0.210433,0
280,-1.5223676,-9.379199,2.366697,0.132,-0.0197,-0.0256,-1.6323999,-9.375,2.3693,-0.021554817,-0.008412487,5.59E-04,-0.263596,-0.556517,0.759376,0.210124,0
320,-1.6520088,-9.452174,2.3293188,-0.0058,-0.076699995,0.020399999,-1.6317999,-9.3768,2.3625,-0.010925761,-0.006789331,0.002932153,-0.263508,-0.556973,0.759149,0.209848,0
360,-1.518326,-9.494791,2.2209477,0.1017,-0.0938,-0.16579999,-1.6315999,-9.3793,2.3527,-0.052307516,-0.013072516,-0.006754424,-0.263591,-0.557282,0.758935,0.209695,0
401,-1.4081067,-9.397041,2.2205741,0.25509998,-0.030299999,-0.1105,-1.6279999,-9.384,2.3365998,-0.10855948,-0.006440265,-0.03981096,-0.263518,-0.55805,0.758474,0.209414,0
440,-1.523622,-9.669041,2.1875916,0.0779,-0.2956,-0.12539999,-1.6078,-9.4031,2.273,-0.16634732,-0.05222025,-0.071750484,-0.263776,-0.560826,0.756297,0.209543,0
480,-1.504344,-9.46517,2.1047714,0.0179,-0.031799998,-0.1083,-1.5771999,-9.4217,2.2166998,-0.18135716,-0.09129817,-0.050230574,-0.262758,-0.563856,0.754547,0.209004,0
520,-1.0734355,-9.486076,1.8094227,0.3636,-0.0092,-0.25509998,-1.5502,-9.4443,2.1378999,-0.33623767,0.006544985,-0.0596379,-0.26190498,-0.567801,0.752223,0.207768,0
561,-0.9200151,-9.4402895,1.4065074,0.61719996,0.0539,-0.5053,-1.5292,-9.4683,2.0449998,-0.48827332,-0.1478992,-0.19275416,-0.262254,-0.571799,0.749206,0.207262,0
600,-1.742701,-9.679125,1.4376415,-0.31599998,-0.1318,-0.29909998,-1.3902,-9.537399,1.8093,-0.53693306,-0.5166873,-0.27602383,-0.256534,-0.584755,0.74197,0.204283,0
640,-1.1112926,-9.580829,0.9744688,0.0508,-0.0177,-0.71599996,-1.2373999,-9.5927,1.6182,-0.8299215,-1.2530941,-0.42774528,-0.246069,-0.597447,0.737096,0.197979,0
680,-0.6847513,-9.217408,2.2113326,0.2006,0.4359,0.7012,-0.9655,-9.664,1.3580999,-0.7054621,-1.6241336,-0.8922472,-0.223617,-0.61705,0.731381,0.185268,0
720,-0.32577422,-9.736299,2.087964,0.124299996,0.0178,0.969,-0.49699998,-9.726299,1.1491,-0.51098007,-1.1533484,-1.4940542,-0.190192,-0.636582,0.726096,0.177128,0
760,-0.7932373,-10.611083,1.3340108,-0.8185,-0.57809997,0.5259,0.1418,-9.757999,0.96459997,-0.39856339,0.14081316,-1.3756859,-0.158474,-0.65246,0.717511,0.18536,0
801,1.0658315,-10.858777,0.9431718,-0.29999998,-1.4812,-0.0537,0.5451,-9.757199,0.8186,-0.20804325,0.6771354,0.4431391,-0.150484,-0.660011,0.707367,0.203397,0
840,1.1768554,-8.978706,1.0300335,1.4663999,0.90169996,0.4685,0.3967,-9.7669,0.78669995,0.23218115,0.706806,-0.12805481,-0.164899,-0.657796,0.705024,0.207492,0
880,0.5070632,-9.817558,0.3972172,-0.047799997,-0.1362,-0.4949,0.4107,-9.758599,0.87729996,0.029094638,0.31642818,-0.0752586,-0.171546,-0.652562,0.705286,0.217497,0
920,0.27485436,-9.723485,0.95312214,-0.1753,0.0407,0.0492,0.4303,-9.7591,0.8627,-0.19504054,0.09588839,-0.026703538,-0.174216,-0.652425,0.703513,0.22149,0
960,0.7338132,-9.991014,0.68881184,0.2741,-0.20889999,-0.0061,0.4319,-9.764299,0.80039996,-0.06914994,-0.060178954,-0.011728613,-0.176008,-0.654376,0.701024,0.22221,0
1000,0.72258925,-9.91144,0.75900984,0.2392,-0.1187,-0.1256,0.4373,-9.7663,0.77279997,-0.060178954,-0.023387412,0.006161012,-0.17520499,-0.655665,0.700352,0.22116,0
1041,0.20841047,-9.940467,1.1674318,-0.1326,-0.137,0.4987,0.4366,-9.7676,0.7564,0.04277802,-0.05518731,0.019477874,-0.174889,-0.656387,0.699986,0.220426,0
1080,0.017678786,-9.906546,0.64519906,-0.427,-0.1276,-0.0905,0.427,-9.7671995,0.7672,-0.048712138,0.09929178,0.03211406,-0.175038,-0.65593,0.700475,0.220116,0
1121,0.1598369,-9.658191,0.6662393,-0.2653,0.060799997,-0.100499995,0.41239998,-9.7692995,0.7478,-0.045396015,-0.060720004,0.016685348,-0.176654,-0.65625,0.699682,0.22038999,0
1160,0.13180558,-9.728178,0.66393125,-0.33049998,0.0427,-0.101799995,0.40899998,-9.7709,0.7295,-0.029181905,-0.1699427,0.022043508,-0.175954,-0.657149,0.699447,0.219014,0
1200,0.42879197,-9.72222,0.7419727,-0.002,0.0539,-0.017199999,0.4041,-9.7723,0.71349996,-0.03663446,-0.27810076,0.02713987,-0.17352399,-0.658414,0.69988,0.215748,0
1241,0.41919598,-9.853423,0.8326842,-0.0274,-0.0229,0.060599998,0.4001,-9.7738,0.69439995,-0.03668682,-0.2080258,0.03265511,-0.170671,-0.65989697,0.700318,0.212039,0
1280,0.44723687,-9.853366,0.7622468,0.036199998,-0.090799995,0.1282,0.3951,-9.7746,0.6857,0.040317107,-0.17083283,0.026092673,-0.167989,-0.660921,0.70101297,0.208666,0
1320,0.77599907,-9.889911,0.41723272,0.32,-0.0814,-0.2746,0.38599998,-9.7741995,0.69629997,-0.009372418,0.002548181,0.04096288,-0.166475,-0.660894,0.702008,0.20661,0
1361,0.68653256,-9.83901,0.51075983,0.38079998,-0.050899997,-0.19759999,0.375,-9.7748995,0.6924,-0.03197443,-0.01298525,-0.0310145,-0.16683,-0.661127,0.701889,0.205982,0
1400,0.2688018,-9.739202,0.5952369,-0.085599996,0.047199998,-0.0893,0.38959998,-9.7754,0.6777,-0.003385939,0.05359906,-0.06393141,-0.166487,-0.661609,0.701359,0.206519,0
1440,0.3316161,-9.804687,0.51000327,-0.1915,-0.0416,-0.1759,0.40719998,-9.774799,0.67609996,-0.049043752,0.119415425,-0.017558012,-0.166513,-0.661665,0.700928,0.207777,0
1480,0.31648475,-9.831741,0.6601676,-0.0804,-0.07,-0.0106,0.4138,-9.7757,0.6579,-0.03286455,0.047944196,-0.020455258,-0.168154,-0.661951,0.699715,0.209626,0
1521,0.25059628,-9.697666,0.9018671,-0.20549999,0.1266,0.1601,0.42119998,-9.7764,0.644,-0.04441863,5.59E-04,-0.05105088,-0.168688,-0.66235,0.698963,0.210439,0
1560,0.11757445,-9.919379,0.9627851,-0.3085,-0.088999994,0.38349998,0.44579998,-9.7764,0.6265,-0.026598819,-0.06806784,-0.08141961,-0.167604,-0.663296,0.698247,0.210704,0
1600,0.002585738,-10.281669,0.6675705,-0.4684,-0.4719,0.0883,0.4684,-9.7759,0.6177,-0.013945181,0.08119272,-0.018832102,-0.166475,-0.663919,0.697849,0.210957,0
1640,0.49368438,-9.836682,0.4685357,-0.0672,-0.079799995,-0.1264,0.45949998,-9.7758,0.6265,0.082047924,-0.04321435,0.06497861,-0.167749,-0.663261,0.697904,0.211835,0
1680,0.81354976,-9.783464,0.5668512,0.2796,-0.0116,-0.1302,0.4362,-9.7753,0.65,-0.017505653,-0.07929031,0.05544911,-0.167406,-0.662444,0.699232,0.210275,0
1721,0.84547883,-9.950293,0.854912,0.43019998,-0.0396,0.304,0.4229,-9.7767,0.6374,-0.034836773,0.025254915,0.008883726,-0.167003,-0.663031,0.69925797,0.208652,0
1761,0.66374934,-10.238774,-0.47129384,-1.9045999,-0.1449,-7.7485,0.4041,-9.7793,0.60929996,-0.21964969,-1.1456516,0.18367845,-0.17233,-0.662748,0.697114,0.212362,0
1800,1.3109117,-9.338977,2.5191789,1.0608,0.377,2.1706998,0.4003,-9.7815,0.5751,0.09258971,-0.3922453,0.010716322,-0.157053,-0.667841,0.700822,0.195373,0
1840,0.42109218,-9.90963,1.2212343,0.138,0.012499999,1.0821999,0.41099998,-9.7799,0.59459996,-0.004450589,1.6424595,-0.097843155,-0.159634,-0.66648,0.700451,0.199219,0
1881,-0.6716789,-9.963499,-0.6063651,-1.0432,-0.23429999,-1.1395,0.4156,-9.7782,0.61969995,0.06517059,0.6254038,-0.052708942,-0.178384,-0.660742,0.695201,0.219759,0
1920,0.15018348,-9.887967,-0.59645313,-0.3398,-0.0602,-1.3314999,0.4182,-9.7758,0.65489995,0.02713987,-0.21940534,-0.010088003,-0.184118,-0.657805,0.694249,0.226737,0
1960,0.23758142,-9.983294,0.5537501,-0.2914,-0.1875,-0.2724,0.4287,-9.776,0.645,-0.068765976,-0.6903301,0.036913715,-0.179,-0.659597,0.695458,0.221874,0
2000,0.9765566,-9.814772,1.2063999,0.45189998,-0.0678,0.5846,0.4306,-9.778,0.6117,-0.012322024,-0.40200168,0.0323235,-0.170564,-0.663111,0.697181,0.212436,0
2041,0.9352135,-9.736203,0.90340894,0.5421,0.0605,0.39069998,0.42859998,-9.7789,0.59959996,-0.011833333,0.059917152,-0.018483037,-0.16683,-0.664523,0.698036,0.208134,0
2080,0.65958345,-9.767893,0.47542143,0.278,0.030499998,-0.0916,0.4378,-9.778299,0.6015,0.02666863,0.116692714,-0.06033603,-0.167406,-0.664307,0.697716,0.209433,0
2120,0.36330575,-9.912493,0.34452564,-0.0941,-0.118,-0.2686,0.457,-9.7768,0.61179996,-0.003665191,0.10222393,-0.040631264,-0.168384,-0.663665,0.697307,0.212031,0
2160,0.31919497,-9.886023,0.49829084,-0.1656,-0.059499998,-0.15699999,0.4696,-9.7765,0.6081,-0.022218041,-0.08785988,-0.010646508,-0.168713,-0.663724,0.696815,0.213199,0
2201,0.6759023,-9.798386,0.74135023,0.15339999,-0.0396,0.0876,0.47419998,-9.7768,0.5988,-0.024713863,-0.05883505,-1.57E-04,-0.167563,-0.664372,0.6968,0.212134,0
2240,0.55810755,-9.809169,0.6864272,0.0717,-0.0196,0.1642,0.47739998,-9.7771,0.5908,0.016685348,0.01966986,-0.005218534,-0.167065,-0.664803,0.696645,0.211684,0
2280,0.87981164,-9.853223,0.5084518,0.3552,-0.0592,-0.096499994,0.4782,-9.7767,0.5967,3.14E-04,0.006161012,0.005270894,-0.16721,-0.664541,0.69676,0.212012,0
2320,0.7609539,-9.736759,0.6830179,0.3363,0.0389,0.0231,0.4775,-9.776899,0.5947,-0.01319469,0.00301942,-0.021851523,-0.16728,-0.664601,0.696692,0.211993,0
2360,0.21928015,-9.890812,0.7432464,-0.1969,-0.0694,0.1724,0.49109998,-9.7764,0.5924,0.028588492,0.020978857,-0.047891833,-0.16694,-0.664773,0.696438,0.212558,0
2400,-0.049981352,-9.970088,0.49803227,-0.504,-0.198,-0.0118,0.504,-9.7752,0.6002,0.020367993,0.01654572,-0.005951573,-0.166582,-0.664454,0.696555,0.213449,0
2441,0.5958019,-9.857905,0.4862911,-0.096999995,-0.0704,-0.1313,0.4991,-9.7754,0.60209996,-0.027366763,-0.11829842,0.052516956,-0.166353,-0.66455,0.696745,0.212709,0
2480,1.1110437,-9.737343,0.69362897,0.59529996,0.019299999,0.0484,0.4833,-9.776999,0.589,-0.020472713,-0.11386528,0.047769662,-0.165608,-0.665237,0.696924,0.210544,0
2520,0.66166157,-9.719578,0.8408245,0.3251,0.079399996,0.2724,0.4691,-9.7781,0.5807,9.08E-04,-0.002687807,0.013072516,-0.164737,-0.665771,0.697248,0.208456,0
2560,0.27001807,-9.893971,0.714516,-0.1988,-0.1064,0.13859999,0.4651,-9.778399,0.5791,-0.020036379,0.08510225,0.013072516,-0.165335,-0.665758,0.697071,0.208618,0
2601,0.28096434,-9.886339,0.41862136,-0.16399999,-0.096,-0.14019999,0.45819998,-9.7792,0.5717,-0.024626596,0.021223204,0.016318828,-0.166331,-0.665721,0.696704,0.209169,0
2640,0.45450568,-9.924378,0.47233766,-0.065299995,-0.134,-0.1374,0.44779998,-9.780399,0.5591,-0.042498767,-0.14149384,0.04277802,-0.166656,-0.66612,0.69644,0.208519,0
2680,0.68543124,-9.7819805,0.70877945,0.2329,-0.014599999,0.1285,0.4339,-9.7822,0.5383,-0.054262288,0.011309734,0.027122416,-0.165886,-0.667109,0.696333,0.206318,0
2720,0.56578815,-9.815298,0.56891024,0.16229999,-0.0232,0.075399995,0.426,-9.7834,0.5227,0.002164208,0.04626868,-0.00164061,-0.166593,-0.667527,0.695801,0.206191,0
2760,0.37452975,-9.877892,0.3821146,-0.042999998,-0.0625,-0.13239999,0.4254,-9.783299,0.5247,0.020402899,0.020333085,9.25E-04,-0.16729,-0.667277,0.69565797,0.206914,0
2800,0.20211852,-9.850483,0.4557698,-0.2181,-0.052899998,-0.1077,0.42409998,-9.7831,0.5294,-0.032532938,-0.03556981,0.012234758,-0.167242,-0.66711,0.695845,0.206861,0
2841,0.3885598,-9.856766,0.5989239,-0.114099994,-0.041899998,0.0758,0.4182,-9.7843,0.5125,-0.060405847,0.054646257,0.03122394,-0.167417,-0.667709,0.695397,0.206293,0
2880,0.43469125,-9.759849,0.600619,0.0442,0.0184,0.087299995,0.4068,-9.7858,0.4912,-0.039287362,-0.018378317,-0.004869469,-0.168671,-0.668207,0.694592,0.206371,0
2920,0.30116183,-9.947823,0.4887619,-0.13759999,-0.1183,0.032199997,0.4122,-9.7863,0.4777,-0.012950343,-0.01441642,-0.014730579,-0.168259,-0.668827,0.694186,0.206067,0
2960,0.6254517,-9.839374,0.51385313,0.17359999,-0.049399998,0.0111,0.4147,-9.7866,0.4693,-0.04527384,0.057752945,0.009215338,-0.168312,-0.669133,0.693857,0.206137,0
3001,0.424559,-9.815336,0.5699158,0.048499998,-0.0387,0.0955,0.4123,-9.787399,0.4536,-0.024661502,0.010419616,-0.018675024,-0.169107,-0.669532,0.693177,0.206482,0
3040,0.20522138,-9.829481,0.4529255,-0.2056,-0.0191,0.015999999,0.4213,-9.787399,0.4448,-0.015899949,0.08761553,-0.040282197,-0.169285,-0.669821,0.692659,0.207133,0
3080,0.21626346,-9.931541,0.3618309,-0.2306,-0.1077,-0.095,0.43649998,-9.7871,0.4382,-0.04033456,0.07534587,-0.043895032,-0.169992,-0.669893,0.691913,0.208806,0
3120,0.22199039,-9.952198,0.20572896,-0.2741,-0.17629999,-0.1959,0.4506,-9.7872,0.4215,-0.06852163,0.03642502,-0.012740904,-0.170767,-0.670334,0.690851,0.210273,0
3161,0.559659,-9.793472,0.31586224,0.0548,0.010799999,-0.081099994,0.4551,-9.788099,0.3949,-0.07079055,-0.018046705,-0.02893756,-0.17117,-0.671241,0.689808,0.210475,0
3200,0.46781746,-9.728992,0.21209754,-0.0335,0.0407,-0.14729999,0.46499997,-9.7885,0.3728,-0.10831513,0.041050144,-0.049008846,-0.170935,-0.672138,0.688985,0.210498,0
3240,0.592699,-9.729997,0.15061444,0.0613,0.0806,-0.17559999,0.4878,-9.7891,0.3227,-0.12533209,0.036983527,-0.050405107,-0.17126,-0.673954,0.686839,0.211441,0
3280,0.7083389,-9.874042,0.15468459,0.17799999,-0.0365,-0.145,0.50839996,-9.789599,0.27249998,-0.13468705,-0.05857325,-0.05656612,-0.171312,-0.675838,0.684816,0.211943,0
3320,0.88746357,-10.073192,0.3213689,0.34129998,-0.262,0.0451,0.53139997,-9.7897,0.21959999,-0.100304075,-0.11815879,-0.04897394,-0.170113,-0.678131,0.68304497,0.211301,0
3360,0.8234138,-10.027262,0.66337585,0.3028,-0.26229998,0.4349,0.5502,-9.7894,0.1828,-0.017697638,-0.14343116,-0.028693212,-0.168021,-0.680032,0.682135,0.209798,0
3400,0.4070047,-9.874578,0.5791095,-0.0885,-0.0862,0.4098,0.5592,-9.789,0.1785,0.004485496,0.08340929,0.004520403,-0.166455,-0.680581,0.682287,0.208769,0
3440,0.52684885,-9.788972,0.4073399,-0.075399995,0.011899999,0.24859999,0.556,-9.7891,0.1828,0.023404865,0.107948616,0.009128072,-0.167803,-0.680088,0.682078,0.209977,0
3480,0.5781423,-9.819484,0.11793838,0.0356,-0.0175,-0.0771,0.5527,-9.7891,0.19479999,0.001902409,0.07539822,-0.008255407,-0.169164,-0.679301,0.682103,0.211347,0
3520,0.5501684,-9.826129,0.115122795,-0.0253,-0.0176,-0.0954,0.5548,-9.789,0.1934,-0.043266714,0.008447394,0.00816814,-0.170007,-0.679141,0.681752,0.212318,0
3560,0.6333142,-9.845714,0.2609105,0.103999995,-0.0368,0.0055,0.55289996,-9.7893,0.18069999,-0.0458498,-0.08667305,0.007225663,-0.170225,-0.679563,0.681326,0.212155,0
3601,0.41578665,-9.935927,0.5109035,-0.15799999,-0.105,0.36749998,0.5503,-9.7898,0.1619,0.00736529,-0.06279694,0.015393804,-0.168624,-0.68066597,0.681291,0.210001,0
3640,0.62173593,-9.959429,0.38330212,0.083399996,-0.1832,0.2365,0.5441,-9.7901,0.1655,0.030386182,0.08051204,0.016737707,-0.168505,-0.680564,0.68157,0.209522,0
3680,0.48072696,-9.838905,0.019728221,-0.046,-0.0751,-0.1611,0.5363,-9.790299,0.18079999,0.013177236,0.05956809,0.03396411,-0.169766,-0.679677,0.681829,0.210539,0
3720,0.56431335,-9.750098,0.20770179,0.0175,0.0628,-0.0169,0.5218,-9.790999,0.1836,-0.016458455,-0.00577704,0.039357174,-0.170807,-0.679307,0.68191,0.210629,0
3760,0.57708883,-9.842669,0.3765313,0.100499995,-0.0637,0.16579999,0.5075,-9.7919,0.1774,-0.006265732,0.02883284,0.026720991,-0.17135,-0.679406,0.681853,0.210052,0
3800,0.45914084,-9.827988,0.27414566,-0.0938,-0.0436,0.1249,0.49589998,-9.792399,0.17899999,0.030613074,0.08356637,0.03169518,-0.172354,-0.679091,0.681841,0.210286,0
3841,0.6215252,-9.76073,0.13398911,0.104499996,0.0548,-0.0744,0.4838,-9.7928,0.19209999,0.02666863,0.07579965,0.029600784,-0.173712,-0.678253,0.68209,0.211063,0
3880,0.47808376,-9.734125,0.40606618,0.028299998,0.0453,0.159,0.4718,-9.793099,0.20369999,0.054524086,-0.019355701,0.031066861,-0.17478,-0.677542,0.682379,0.211532,0
3920,0.39919004,-9.799294,0.23890302,-0.1056,-0.0132,-0.007,0.4587,-9.7933,0.2228,-0.002042035,0.10939724,0.041329395,-0.175071,-0.676749,0.683166,0.21129,0
3960,0.48697105,-9.760605,0.4209198,0.054199997,0.046,0.2346,0.44579998,-9.793799,0.2263,0.049131017,0.0959233,-0.013177236,-0.176981,-0.67612,0.682955,0.212392,0
4000,0.5122538,-9.689037,0.264837,0.0354,0.13319999,0.0795,0.4549,-9.7928,0.2538,0.12770574,0.10293952,-0.07377507,-0.177585,-0.674921,0.683423,0.214188,0
4040,0.41157284,-9.91956,-0.37210685,-0.0367,-0.0561,-0.6386,0.4878,-9.7897,0.3051,0.048921578,0.13030629,-0.13238323,-0.177589,-0.672979,0.68428,0.21753299,0
4080,0.08723513,-10.338604,-0.1195377,-0.4393,-0.48079997,-0.47689998,0.5374,-9.7866,0.3199,-0.020769417,-0.12304571,-0.09204867,-0.176888,-0.672603,0.683854,0.220587,0
4120,0.0999244,-10.112936,0.23979367,-0.5944,-0.4035,-0.091,0.5649,-9.7855,0.3067,-0.048624873,-0.32908183,0.059253927,-0.173865,-0.67389,0.683816,0.219172,0
4160,0.444632,-9.692811,0.60157675,-0.1193,0.0598,0.3004,0.541,-9.788,0.2683,-0.17654005,-0.17254324,0.082693696,-0.170646,-0.676163,0.684188,0.213467,0
4201,0.26044124,-9.762808,0.9009669,-0.2032,0.092199996,0.6365,0.51699996,-9.790999,0.197,-0.15531684,-0.22481586,0.002600541,-0.170043,-0.678998,0.682667,0.209788,0
4240,0.10881168,-9.783867,0.91108954,-0.4032,0.034199998,0.76479995,0.5209,-9.7918,0.1374,-0.096342176,-0.24823818,-0.02893756,-0.167333,-0.681904,0.681534,0.206193,0
4280,0.12317689,-9.751947,0.83500177,-0.4398,0.0049,0.6857,0.5281,-9.792,0.088999994,-0.1731192,-0.116692714,0.034225907,-0.164474,-0.684404,0.680704,0.202929,0
4320,0.4895568,-9.488212,1.3341832,-0.0727,0.261,1.2028999,0.514,-9.793099,0.0229,-0.08594001,-0.25169393,0.021066124,-0.164179,-0.686933,0.678966,0.20043,0
4360,0.42775765,-9.623762,1.2695206,-0.0411,0.24159999,1.3986,0.5118,-9.7932,-0.0061,-0.05099852,-0.083758354,-0.04979424,-0.160736,-0.688822,0.67906797,0.19635,0
4401,0.07472782,-9.846222,1.0009774,-0.35599998,-0.053799998,0.96699995,0.53249997,-9.792,-0.045199998,-0.16580628,0.25359634,-0.07897615,-0.16097,-0.690212,0.677323,0.197301,0
4440,-0.23391351,-9.538701,0.22258414,-0.8214,0.248,0.48999998,0.5664,-9.7898,-0.0879,-0.03926991,0.079813905,-0.08595747,-0.16331,-0.69124,0.674576,0.201154,0
4480,-0.28616455,-9.7476,0.42429087,-0.8806,0.0792,0.45949998,0.5962,-9.7878,-0.1162,-0.19832176,-0.10801843,-0.02693043,-0.162885,-0.692385,0.67317,0.202268,0
4520,-0.09098924,-9.814197,0.5308903,-0.80759996,-0.030399999,0.67579997,0.6016,-9.785999,-0.2051,-0.33232814,0.008709193,0.03541273,-0.162504,-0.695737,0.670284,0.200652,0
4561,0.57298034,-9.7843075,0.3970544,-0.120299995,-0.0234,0.73429996,0.59099996,-9.7831,-0.3322,-0.2921681,0.047944196,-0.014154621,-0.16434,-0.69995,0.665814,0.199379,0
4600,0.14492582,-9.828208,0.011808203,-0.377,-0.009099999,0.44799998,0.60249996,-9.7778,-0.44799998,-0.36713,0.16441001,-0.05942846,-0.166106,-0.70374,0.661258,0.199737,0
4640,-0.19240762,-10.194138,-0.36441666,-0.8172,-0.36159998,0.31329998,0.63089997,-9.7685995,-0.5879,-0.4005007,0.25144958,-0.0630762,-0.1691,-0.708082,0.65518,0.201898,0
4680,0.00413718,-10.755607,-0.046016555,-0.6448,-0.8839,0.6099,0.6644,-9.7562,-0.7374,-0.35993925,0.0895703,-0.11665781,-0.172947,-0.712523,0.648386,0.204924,0
4721,-0.47970223,-10.992374,0.53821653,-1.0746,-1.2514,1.2938,0.7118,-9.741799,-0.8721,-0.31796408,-0.20008455,-0.15196581,-0.1732,-0.717266,0.642784,0.20581199,0
4760,-1.2912792,-10.728073,0.2693381,-1.977,-1.0712,1.3616999,0.76089996,-9.7259,-0.9989,-0.28164378,-0.057962384,-0.09313077,-0.169872,-0.722547,0.638389,0.203784,0
4800,-0.8024023,-10.625065,-0.46117115,-1.7271,-0.80009997,0.7215,0.78569996,-9.7125,-1.104,-0.1833992,-0.10965904,0.04670501,-0.16931699,-0.726375,0.634418,0.203033,0
4840,0.46942633,-11.130796,-0.51596963,-0.5335,-1.4909999,0.6766,0.7492,-9.708099,-1.1668999,0.013840461,-0.25492278,0.19341739,-0.168874,-0.728682,0.633119,0.199154,0
4880,1.5284775,-10.220914,-0.6299623,0.7884,-0.69769996,0.5082,0.66279995,-9.7169,-1.1456,0.32676053,-0.20160298,0.14987142,-0.168594,-0.728003,0.635681,0.19364,0
4920,2.0160902,-8.178718,-0.20477128,1.1913999,1.1000999,0.9672,0.5933,-9.7397995,-0.977,1.0557497,-0.740037,0.11880456,-0.165305,-0.722833,0.643767,0.189073,0
4960,2.3559806,-9.924273,1.3567079,2.0212,0.0189,1.7229999,0.548,-9.7766,-0.53639996,1.8154042,-0.24228661,-0.05440191,-0.152103,-0.710081,0.663131,0.181399,0
5001,1.356976,-10.665833,-0.6162196,1.1632,-0.7712,0.3572,0.5627,-9.7904,-0.0042,1.6640143,1.6874018,0.020263273,-0.146166,-0.684883,0.688338,0.189101,0
5040,2.3008468,-11.046396,-1.9070774,1.5814999,-1.3987,-2.7352998,0.47779998,-9.7611,0.8132,1.3784087,1.2376304,0.16331045,-0.170607,-0.655308,0.702187,0.219989,0
5080,0.3056917,-10.7713785,-1.0654868,0.65279996,-1.3025,-2.4984999,0.4062,-9.700399,1.3805,1.2728686,-0.91177744,0.043022364,-0.17812599,-0.630777,0.717592,0.23548,0
5120,-1.2446496,-9.953214,2.5687678,-1.6953,-0.406,0.8282,0.4008,-9.6261,1.8292999,1.407608,-0.7245385,0.49815187,-0.160399,-0.617254,0.736775,0.22457,0
5160,-0.3645603,-8.99468,1.2440847,-0.7967,0.3662,-1.1688,0.2671,-9.506,2.3947,1.9526744,-0.6722485,0.44607124,-0.149927,-0.596176,0.759207,0.213775,0
5201,-0.70630866,-8.083563,1.2135922,-1.0842,0.4454,-1.7505,0.1722,-9.290999,3.1332,1.3144249,-0.66530204,0.657832,-0.135748,-0.567292,0.78631,0.203636,0
5240,1.3669455,-7.0147715,2.3824797,1.1673,2.264,-1.1331999,0.0683,-9.158,3.5063999,-0.005235988,-0.9747489,0.24033184,-0.124729,-0.552868,0.802307,0.187302,0
5280,1.0307422,-7.716234,3.422358,1.0107,1.5167999,-0.20879999,0.117,-9.165999,3.4842,-0.13521066,-0.31611404,-0.032899458,-0.113521,-0.556297,0.804402,0.174877,0
5320,1.2207843,-7.7031045,2.697078,0.9259,1.431,-0.63729995,0.192,-9.188,3.4224,-0.40934953,-0.33063516,-0.29003882,-0.108114,-0.560192,0.802968,0.172443,0
5360,1.1345835,-8.299874,3.1413267,0.6216,1.1034,-0.3155,0.36879998,-9.2527,3.2280998,-0.8048237,-0.34772193,-0.5473178,-0.100487,-0.570362,0.796586,0.173316,0
5401,0.4592845,-9.421394,3.9145677,0.0345,0.17,0.73499995,0.5538,-9.3196,3.0012999,-0.78333867,-0.30511847,-0.55122733,-0.093806,-0.581529,0.788747,0.175789,0
5441,-0.6212666,-10.8404,3.7620378,-1.3529999,-1.4822999,1.1840999,0.8235,-9.4029,2.6599998,-0.25075147,-0.28886944,-0.00408407,-0.082615,-0.597952,0.777228,0.177604,0
5480,-0.6479189,-10.37102,3.7876272,-1.5127,-0.93689996,1.0101,0.8066,-9.4189,2.6083999,0.335557,0.303984,0.47652724,-0.08209,-0.600222,0.776197,0.174676,0
5520,-0.940203,-8.574202,4.3910713,-1.4764999,0.22909999,1.676,0.5645,-9.3885,2.7761,0.42367867,-0.08494517,0.77635735,-0.09126,-0.591714,0.78285,0.169383,0
5561,0.49183607,-7.6655254,2.979517,-0.0435,2.1854,0.3633,0.3279,-9.3736,2.863,-0.2491283,-0.29335493,0.17640042,-0.095725,-0.587249,0.788248,0.156966,0
5600,2.1320748,-9.8725195,1.5028787,1.2211,-0.0266,-0.92139995,0.3184,-9.3975,2.7847,-0.76422733,-0.11416198,-0.50488883,-0.094479,-0.59083897,0.786447,0.15324,0
5641,2.0802739,-12.0243225,3.6297343,2.1101,-1.9008,0.49469998,0.567,-9.4944,2.3883,-0.9912423,-0.6538876,-0.28639108,-0.086255,-0.608922,0.77275,0.15694,0
5680,0.897366,-11.760252,4.748516,-0.037299998,-2.7038,2.9717,0.67469996,-9.564199,2.059,-0.087964594,-0.032079153,0.1192758,-0.078038,-0.623639,0.763077,0.150652,0
5720,1.2670403,-10.012446,2.4923925,0.6857,-0.6277,0.6942,0.6283,-9.5711,2.0418,-0.015795229,0.48167595,-0.07658505,-0.081512,-0.6239,0.762439,0.150961,0
5760,1.2491412,-8.48123,1.9625367,0.8057,0.98999995,0.1461,0.6358,-9.5708,2.0407,-0.07353072,0.29791024,-0.23495622,-0.086388,-0.623288,0.76108,0.157496,0
5800,-0.0369569,-9.101635,-0.2686965,-0.288,0.8251,-1.6647999,0.6803,-9.572599,2.0179,-0.43247512,0.4972094,-0.12034045,-0.0883,-0.623954,0.759148,0.163028,0
5840,0.5683356,-9.452442,-0.68032676,-0.3874,0.1461,-2.5665,0.64239997,-9.6291,1.7428,-0.89013535,0.6178815,0.28801423,-0.099272,-0.63347,0.748528,0.169011,0
5881,1.897606,-9.398084,0.53564996,1.3535,0.38959998,-1.0095,0.48999998,-9.686299,1.4508,-0.24642304,0.20373228,0.23630013,-0.114904,-0.642512,0.738087,0.170886,0
5920,0.667082,-9.9078865,-0.38943127,0.45589998,-0.14479999,-1.8932999,0.4168,-9.701,1.3736,-0.2627244,-0.45265114,0.009808751,-0.118351,-0.644946,0.736073,0.168023,0
5961,0.13360603,-10.331679,0.10080547,-0.3428,-0.61649996,-1.2299,0.43109998,-9.7196,1.2299,-0.57644737,0.1597849,0.0198793,-0.115540996,-0.651105,0.732068,0.163668,0
6000,0.51509815,-9.833437,0.44889367,0.16409999,-0.1002,-0.5731,0.4046,-9.7456,1.0144,-0.47296676,-0.072658055,0.12454669,-0.119535,-0.658777,0.724717,0.162816,0
6040,0.521438,-9.25517,0.34125036,0.0984,0.3802,-0.5543,0.3527,-9.7651,0.8289,-0.53681093,-0.052674036,0.1749867,-0.121908,-0.665488,0.719071,0.158745,0
6081,0.6081081,-9.00126,1.1474739,0.3947,0.8782,0.31149998,0.2916,-9.782599,0.62009996,-0.45832345,-0.08300786,0.06827728,-0.124943,-0.672883,0.712581,0.154417,0
6120,-0.04213795,-9.302872,0.9305017,-0.2258,0.4558,0.574,0.2748,-9.791699,0.46539998,-0.29249972,0.27686158,0.004206243,-0.126265,-0.67847097,0.707482,0.152322,0
6160,-0.5785253,-9.641086,0.41426393,-0.7874,0.255,0.154,0.2677,-9.7968,0.3461,-0.37676424,0.3156428,0.050160762,-0.13182,-0.681891,0.702404,0.155802,0
6200,-0.3352457,-9.9926605,0.88394886,-0.64,-0.162,0.5566,0.24769999,-9.801499,0.19839999,-0.38659042,-0.15580554,0.023945916,-0.136857,-0.686403,0.696687,0.157312,0
6240,0.6025631,-9.574718,1.0601908,0.0887,0.1537,1.0570999,0.2446,-9.8034,0.050899997,-0.3359759,0.12501794,-0.07440338,-0.13623899,-0.691981,0.691955,0.154263,0
6280,0.989514,-9.394675,0.35347995,0.75009996,0.38799998,0.5148,0.2795,-9.8022995,-0.0735,-0.23277456,0.20676915,-0.19933406,-0.137958,-0.696217,0.68683,0.15656699,0
6321,0.037138853,-9.498728,0.5535586,-0.0274,0.44309998,0.6329,0.3608,-9.7986,-0.16219999,-0.24537584,0.08299041,-0.23172736,-0.137972,-0.699452,0.682517,0.160936,0
6360,-0.9345048,-10.09584,-0.18319473,-1.3425,-0.2683,0.2627,0.4403,-9.7932,-0.2627,-0.36095154,0.593953,-0.08152433,-0.138565,-0.70299,0.677651,0.165505,0
6400,0.018349161,-10.150343,-0.9072396,-0.6897,-0.3038,-0.4288,0.4739,-9.7872,-0.3949,-0.38922587,0.34866443,-0.048048913,-0.146498,-0.706169,0.670679,0.173356,0
6440,0.71842337,-11.363331,0.46593082,0.1911,-0.93789995,0.070099995,0.4953,-9.7807,-0.5114,-0.35709438,-0.12896238,-0.15437438,-0.150681,-0.709487,0.665305,0.176895,0
6481,-0.39984125,-11.361235,2.0076241,-0.7252,-1.6773,2.652,0.5585,-9.767,-0.68079996,-0.28321457,0.38716638,-0.100635685,-0.149294,-0.71583897,0.658709,0.17716,0
6520,-1.7483802,-10.694037,-0.07233362,-2.2579,-1.0792,0.9981,0.61039996,-9.757,-0.7725,-0.2209936,0.13514084,-0.07045894,-0.153998,-0.718104,0.653414,0.183464,0
6560,-1.8161265,-10.760471,0.5796937,-2.4452999,-0.8796,1.1471,0.6311,-9.7507,-0.8332,-0.082938045,-0.15311773,0.037035886,-0.154459,-0.720761,0.650246,0.183915,0
6600,-1.4848073,-11.441086,0.07980353,-1.9933,-1.6358999,0.99009997,0.6105,-9.749499,-0.86259997,0.2268579,-0.21533872,0.18671532,-0.153733,-0.721354,0.650367,0.181761,0
6640,1.29624,-10.043485,0.82518554,0.4957,-0.5656,1.3334,0.4849,-9.7705,-0.68619996,0.96764547,-0.19952604,0.3125012,-0.152328,-0.715389,0.659105,0.174907,0
6680,2.912556,-8.141368,0.013982138,2.3329,1.6271,0.4113,0.3638,-9.796,-0.274,1.3611125,0.31234413,0.18950784,-0.151144,-0.700805,0.675561,0.172174,0
6721,2.1620119,-10.775488,-1.0396103,2.0779998,-0.5476,-1.0382999,0.2951,-9.7983,0.27339998,1.3745166,1.3021203,0.13363986,-0.156002,-0.679502,0.693571,0.181381,0
6760,2.376006,-11.940009,-3.0846894,1.9956,-2.3883998,-3.6648,0.20099999,-9.7717,0.8013,1.0431658,0.641583,0.21052161,-0.171008,-0.655667,0.707655,0.2002,0
6800,0.45703396,-10.167571,-0.105431065,0.34,-0.79749995,-1.582,0.110999994,-9.7347,1.1798999,0.7949451,-0.39714968,0.24588199,-0.174836,-0.639741,0.719666,0.205532,0
6840,0.77242696,-8.502173,2.3735158,0.51519996,1.0591999,0.4484,0.0535,-9.689,1.5129,1.2440009,-0.5454852,0.13924237,-0.166843,-0.628511,0.733177,0.198967,0
6880,1.4325753,-8.786681,1.934649,1.2628,0.99009997,0.091299996,0.051099997,-9.5906,2.0463998,1.7515775,-0.5454154,0.030264009,-0.154551,-0.609732,0.752531,0.19502799,0
6920,1.0230137,-9.250851,1.4978222,1.0692999,0.3618,-1.0812,0.087799996,-9.433,2.6797,1.2429537,0.023282692,-0.005637413,-0.141292,-0.586009,0.773887,0.194237,0
6961,-0.5918467,-9.661226,0.6506674,-0.1408,-0.10349999,-2.1267,0.0721,-9.301,3.1074,0.6730513,-0.072972216,0.073565625,-0.138359,-0.567821,0.786859,0.198212,0
7000,-0.7643537,-9.576731,3.9193943,-1.1168,-0.8418,0.5789,0.028299998,-9.2295,3.3142,0.8153655,-0.5077163,0.5762554,-0.132206,-0.559946,0.795445,0.190386,0
7040,0.97998506,-6.6523275,2.450523,0.8326,2.2349,-0.9679,-0.087299995,-9.1192,3.6058998,0.40519562,-0.18512708,0.15866788,-0.127389,-0.547651,0.807206,0.179632,0
7081,0.56911135,-7.321086,2.776565,0.7786,1.9662,-1.0412999,-0.0824,-9.085899,3.6890998,-0.27656487,-0.27679175,-0.20851448,-0.124106,-0.544522,0.810411,0.176989,0
7120,0.09481039,-7.9905233,3.6149862,0.13759999,1.2492,-0.0196,0.048699997,-9.133699,3.5695999,-0.55122733,-0.26221827,-0.38688713,-0.118047,-0.55142,0.806602,0.177182,0
7160,-0.4752682,-8.935438,3.1075304,-0.69049996,0.468,-0.2658,0.2296,-9.2156,3.3451,-0.71842986,-0.33485886,-0.3011042,-0.111376,-0.563063,0.799101,0.17886,0
7200,-0.02501462,-10.498584,4.1507125,-0.3733,-0.9583,0.8713,0.3733,-9.299399,3.0904999,-0.5435304,-0.26862362,-0.20024163,-0.105609,-0.575563,0.791081,0.178223,0
7240,-0.58597606,-10.199797,4.1200285,-0.8602,-0.9651,1.27,0.4581,-9.351399,2.9173,-0.14854497,-0.31820843,0.12117821,-0.100986,-0.584,0.786001,0.175919,0
7280,-1.3865589,-9.6340475,3.9188294,-1.7922,-0.3983,1.0466,0.4193,-9.3689995,2.8662,-0.038589228,-0.47485173,0.48966956,-0.098544,-0.586645,0.785973,0.168472,0
7321,0.21728817,-7.854255,3.7477303,-0.42249998,1.4190999,1.0249,0.2951,-9.3821,2.8388999,-0.31297243,-0.37693876,0.24909338,-0.096757,-0.588127,0.787818,0.155193,0
7360,1.1276882,-9.529717,2.8724194,1.0115,0.1859,0.39569998,0.2829,-9.433599,2.6639,-0.8223468,-0.06613053,-0.2901261,-0.094193,-0.596074,0.783526,0.14801499,0
7400,1.5538465,-9.666436,2.469552,0.9657,-0.0696,0.0048,0.36789998,-9.491799,2.437,-0.97576123,0.31686452,-0.49836132,-0.093205,-0.605852,0.775671,0.150297,0
7440,1.7726479,-12.634921,3.9966218,1.3282,-1.8793999,0.9615,0.5448,-9.5746,2.0491,-0.35100317,-0.5933072,-0.30194196,-0.093119,-0.62548,0.757696,0.161244,0
7481,0.2688401,-11.027205,2.5453427,-0.2907,-1.9439,1.2317,0.69269997,-9.5984,1.8866999,-0.09368927,0.18278833,0.02448697,-0.084868,-0.62976,0.755812,0.157942,0
7520,0.9889394,-9.260849,0.7606571,-0.1152,-0.1996,-0.6863,0.66429996,-9.6069,1.8533,-0.45402995,0.7216762,0.13021901,-0.088761,-0.630578,0.754272,0.159893,0
7560,0.6200599,-8.951067,0.65999526,0.13509999,0.70339996,-1.026,0.5678,-9.6394,1.7116,-0.3310366,0.51841515,0.028117254,-0.105091,-0.635327,0.746448,0.167717,0
7601,0.39182547,-9.078947,-0.2681889,-0.21599999,0.5664,-1.3562,0.5298,-9.6572,1.6209999,-0.12969542,0.24506168,0.069848076,-0.110797,-0.636986,0.74346,0.170994,0
7640,2.3253446,-9.342242,-0.5914827,1.6946,0.39999998,-2.2921,0.45299998,-9.6869,1.4584999,-0.61962676,0.29344222,0.046896998,-0.118793,-0.641499,0.73794,0.172658,0
7680,0.9181572,-9.329457,0.20493408,0.7558,0.3403,-0.8896,0.43069997,-9.7155,1.2622,-0.061313417,-0.7524638,-0.022043508,-0.122771,-0.648512,0.731213,0.172295,0
7720,0.19841228,-9.725266,-0.47493303,-0.23089999,0.0889,-1.7235,0.4858,-9.7191,1.2135,-0.41116467,-0.37751472,-0.08089601,-0.111385,-0.65247,0.731674,0.162876,0
7760,-0.52866846,-10.310611,1.3672328,-1.089,-0.5973,-0.19829999,0.53,-9.7388,1.022,-0.5682792,-0.19575612,0.004694936,-0.107702,-0.660521,0.725774,0.159257,0
7800,1.3658633,-9.251866,1.5846167,0.9388,0.4475,0.9672,0.5419,-9.7541,0.8567,0.01870993,-0.8666781,-0.01966986,-0.102507,-0.66769,0.721478,0.152152,0
7841,0.39004418,-9.4690485,0.029764716,-0.2753,0.3419,-0.802,0.56949997,-9.7563,0.8118,-0.533233,0.2358987,-0.001605703,-0.094282,-0.67061,0.721418,0.14473,0
7880,0.31500033,-9.58649,1.107414,-0.2481,0.2592,0.2463,0.56189996,-9.7717,0.60679996,-0.479983,0.18018779,0.046827182,-0.098813,-0.677712,0.713807,0.146356,0
7920,0.5977172,-9.264804,2.2065248,0.088199995,0.38729998,1.6443,0.5394,-9.7821,0.4346,-0.27829275,-0.06635742,0.061679937,-0.102407,-0.683631,0.707654,0.146236,0
7960,0.59577316,-9.135996,0.84917545,0.1815,0.79429996,0.7592,0.5245,-9.787,0.3292,-0.3593982,0.43376666,-0.08159414,-0.104219,-0.687277,0.703967,0.145663,0
8001,-0.26602453,-10.259384,1.0794019,-0.7467,-0.2726,0.7798,0.5603,-9.788899,0.1812,-0.40619048,0.41760492,-0.12651892,-0.110258,-0.69181,0.697146,0.152408,0
8040,0.39022613,-10.098906,1.1869303,-0.2968,-0.40089998,1.0433999,0.6008,-9.788099,0.0451,-0.33995524,0.28968975,-0.029496064,-0.115298,-0.695992,0.690792,0.158452,0
8080,-0.20312408,-9.904515,0.74043083,-0.7026,-0.029399998,0.9719,0.6143,-9.7869,-0.0893,-0.45017278,0.51670474,-0.06501351,-0.119947,-0.700118,0.684961,0.162093,0
8120,-0.36643735,-10.0794935,-1.0573752,-1.036,-0.2899,-0.6864,0.65349996,-9.7815,-0.255,-0.46130797,0.66156703,-0.12119567,-0.129281,-0.704478,0.676465,0.171439,0
8160,1.1241351,-10.63037,-0.522252,0.095599994,-0.7102,-0.3425,0.6986,-9.773,-0.4125,-0.42140976,0.2517114,-0.03939208,-0.137431,-0.708623,0.668287,0.179879,0
8200,0.1821796,-10.634287,1.1025107,-0.14,-0.86649996,1.6358,0.7186,-9.7638,-0.5669,-0.39749873,0.08777261,-0.06647959,-0.140227,-0.713611,0.661952,0.181419,0
8241,-0.8571912,-10.593855,-0.13668975,-1.5591999,-0.86859995,0.8839,0.7452,-9.7519,-0.7172,-0.41566762,0.5695533,0.025411993,-0.144925,-0.71803,0.655095,0.185143,0
8280,-0.92645067,-10.686395,0.69792897,-1.7148999,-0.89949995,1.4268999,0.74399996,-9.7406,-0.85819995,-0.22390829,-0.1409877,0.095033176,-0.152161,-0.721528,0.648385,0.189315,0
8320,-1.1116278,-11.756602,0.35570174,-1.7224,-1.8936,1.4894999,0.7026,-9.7369995,-0.9305,0.14357078,-0.16610299,0.14058627,-0.152017,-0.724109,0.646716,0.18524,0
8361,0.35657325,-10.938149,-0.22672133,-0.71959996,-1.3902,0.41669998,0.62149996,-9.7501,-0.84819996,0.5603205,-0.27851963,0.3356268,-0.151693,-0.721274,0.651176,0.18089099,0
8400,2.5710182,-9.457643,0.65548456,1.4754,-0.195,1.2152,0.5251,-9.768499,-0.6857,1.1594397,-0.30759683,0.2626197,-0.15,-0.712628,0.662679,0.174689,0
8440,3.349421,-8.913986,0.64007545,3.1153,0.9622,0.79319996,0.4052,-9.797999,-0.067499995,1.656108,0.43249258,-0.020664698,-0.145198,-0.694523,0.683205,0.172584,0
8480,1.3413372,-10.290049,-0.77122027,1.0174999,-0.3879,-0.9848,0.4044,-9.7815,0.573,1.5680038,1.4086204,0.062063906,-0.147789,-0.670032,0.703315,0.185907,0
8520,2.1545517,-11.014084,-0.5926894,1.8464999,-1.1566,-2.0783,0.34019998,-9.7287,1.1859,1.3518971,0.28635618,-0.11646582,-0.159976,-0.643381,0.719762,0.205935,0
8560,-0.10118854,-11.149079,1.6375957,-0.0316,-1.5402,-0.6094,0.38459998,-9.649099,1.7077,1.3439908,-0.36835173,-0.038816124,-0.15433499,-0.623784,0.735858,0.213507,0
8600,-0.77099043,-9.491152,1.859835,-1.0919,-0.2331,-0.0971,0.376,-9.5342,2.2642999,1.4873172,-0.28213248,0.33580133,-0.145037,-0.602919,0.754923,0.213407,0
8640,-0.6970479,-8.593402,1.1617911,-1.2131,0.7026,-1.6183,0.2913,-9.4011,2.7754998,1.2877039,-1.1556872,0.6260845,-0.135624,-0.583173,0.774132,0.205508,0
8680,0.575748,-7.4458237,1.4063541,0.1337,1.5624,-1.8680999,0.17999999,-9.2606,3.2214,0.90360934,-0.8178962,0.512865,-0.121502,-0.566556,0.793422,0.186363,0
8720,1.8122383,-6.9904084,3.2865686,1.4519,2.1894999,-0.4834,0.1366,-9.162,3.4940999,0.04914847,-0.676158,0.07524114,-0.110109,-0.55653,0.805364,0.171864,0
8760,0.5815899,-8.017339,2.8584375,0.5118,1.2404,-0.5424,0.2138,-9.1642,3.4843998,-0.35273105,-0.47689375,-0.15800466,-0.100813,-0.558729,0.806487,0.165032,0
8800,0.51793283,-8.364478,3.1830242,0.13059999,0.99109995,-0.30589998,0.3401,-9.2189,3.3263998,-0.55450857,-0.29778808,-0.2745403,-0.092904,-0.567245,0.802107,0.16194,0
8841,0.023999477,-9.592608,4.7616262,-0.35439998,-0.1513,1.5029,0.48189998,-9.282599,3.1258,-0.39707986,-0.33403856,-0.24345598,-0.086923,-0.577124,0.79561,0.162405,0
8880,-0.6182978,-9.2653885,4.1770587,-1.252,0.0471,1.4337,0.59499997,-9.3241,2.9792,-0.23408356,-0.30052823,0.009093165,-0.080501,-0.584483,0.791211,0.160878,0
8920,-0.63488483,-10.1264105,2.957107,-1.2461,-0.6034,0.14649999,0.6087,-9.3502,2.8934999,-0.13451253,-0.038397245,0.2184454,-0.077764,-0.588579,0.789225,0.157006,0
8960,-0.16236518,-9.936378,4.437586,-0.7931,-0.7683,1.4426,0.5087,-9.371699,2.8428,-0.15006341,-0.1725956,0.4452335,-0.080661,-0.590379,0.78863,0.151685,0
9001,0.35678393,-9.459702,4.082679,-0.070999995,0.23799999,1.4639,0.3849,-9.4073,2.7431,-0.6561391,-0.35817647,0.14604916,-0.082119,-0.594471,0.78725,0.141761,0
9040,1.5707208,-11.151243,2.9990537,0.84919995,-1.3184999,0.6918,0.38639998,-9.478499,2.4854999,-0.6470634,0.12322024,-0.26830947,-0.080657996,-0.605612,0.779823,0.136391,0
9080,2.2435107,-13.016595,2.438073,1.8465999,-3.5331,0.18239999,0.5069,-9.5293,2.2593,-0.31660274,-0.29328513,-0.37435567,-0.079301,-0.615235,0.771484,0.141453,0
9120,0.5477359,-9.760375,1.4437037,0.4305,-0.66209996,-0.4472,0.6285,-9.5465,2.1536,-0.19615756,0.2907544,0.065484755,-0.073646,-0.620299,0.767729,0.142817,0
9160,1.5489622,-7.4392347,0.10251014,0.7536,2.0500998,-1.8058,0.5506,-9.5718,2.0607998,-0.5847202,0.33332297,0.21668263,-0.080706,-0.623226,0.764413,0.144037,0
9201,2.2544281,-8.565736,0.61852765,1.7717999,1.4906,-1.3151,0.4543,-9.630099,1.7955999,-0.7313104,0.6109874,-0.11597713,-0.090571,-0.632646,0.755381,0.144756,0
9240,0.24354778,-10.189406,-1.0119907,0.3417,-0.34489998,-2.0958,0.4721,-9.6676,1.5761,-0.3385415,0.6245137,-0.2555511,-0.099947,-0.640039,0.746061,0.154119,0
9280,-1.0776014,-10.345585,-0.8969733,-1.5825,-0.6343,-2.5218,0.53319997,-9.6821995,1.4627,-0.26970574,0.06948156,-0.117513016,-0.105791,-0.643606,0.740079,0.163891,0
9320,-0.019766528,-10.082318,-0.22744916,-0.8174,-0.463,-1.5719,0.55259997,-9.6966,1.3562,-0.40622538,-0.5489933,0.19409807,-0.105585,-0.647845,0.736483,0.163524,0
9360,0.7452767,-9.236619,1.3668402,0.13409999,0.33139998,-0.1864,0.5032,-9.7262,1.1474999,-0.7439815,-0.71738267,0.2404191,-0.101213,-0.656695,0.731742,0.151854,0
9400,1.2155745,-8.62423,1.61464,0.83779997,1.1367999,1.0521,0.4468,-9.7568,0.8797,-0.40163517,-0.23170991,0.06647959,-0.096441,-0.667715,0.72496897,0.138832,0
9441,0.52536446,-9.172168,0.7566923,0.4581,0.93579996,0.030299999,0.4342,-9.7716,0.7051,-0.52820647,0.095033176,-0.09983283,-0.095363,-0.675215,0.71896,0.134481,0
9480,0.21591869,-9.7633915,0.9264028,-0.2439,0.16139999,0.34579998,0.4694,-9.7817,0.5171,-0.46664867,0.13870132,-0.12016592,-0.097301,-0.681297,0.712479,0.136889,0
9520,0.112153985,-10.103886,0.823433,-0.43269998,-0.3723,0.5406,0.5112,-9.7873,0.3419,-0.48471284,-0.16369443,-0.041119955,-0.097385,-0.687808,0.705996,0.137858,0
9560,0.7159908,-9.663697,1.9174107,0.1013,0.0731,1.6367999,0.5262,-9.7915,0.1381,-0.47242573,0.027715828,-0.021240657,-0.096493,-0.695445,0.699045,0.135574,0
9601,0.56870914,-9.345517,0.2586121,0.1989,0.5148,0.723,0.5365,-9.7919,-0.0267,-0.38412952,0.4796514,-0.06154031,-0.098701,-0.701157,0.692814,0.136544,0
9640,0.18607736,-9.265024,0.061004262,-0.3751,0.56009996,0.2931,0.57129997,-9.788199,-0.18519999,-0.43186426,0.69427454,-0.14220943,-0.105807,-0.705867,0.685432,0.14400999,0
9680,0.602927,-10.049613,-0.07625053,-0.098,-0.1734,0.2136,0.6374,-9.7803,-0.3313,-0.33402112,0.4245688,-0.16720255,-0.113831,-0.709885,0.67768,0.154448,0
9720,-0.43395385,-11.01507,-0.13162363,-1.0263,-1.0558,0.2226,0.70269996,-9.7706995,-0.45799997,-0.47171015,0.09258971,-0.043912485,-0.117198996,-0.713875,0.671497,0.160429,0
9760,-0.020638019,-11.619961,0.63368773,-0.75259995,-1.9499999,1.2091,0.7036,-9.759,-0.65999997,-0.52068406,0.21207495,0.09669124,-0.120782,-0.72046,0.663634,0.16105,0
9800,-0.7757214,-11.198045,0.18210298,-1.3195,-1.4503,1.0986999,0.67219996,-9.748799,-0.82409996,-0.22991222,0.051749013,0.15566592,-0.125769,-0.725398,0.65726,0.161208,0
9841,-0.6402287,-11.164632,-0.12914324,-1.4625,-1.4514999,0.7733,0.59959996,-9.7476,-0.891,0.028344147,-0.12747885,0.29332003,-0.129048,-0.727171,0.655358,0.158346,0
9880,-0.274251,-11.395231,0.7703296,-0.83809996,-1.7361,1.4192,0.4752,-9.757199,-0.8602,0.39563122,-0.14425147,0.36610025,-0.131433,-0.725664,0.657923,0.152556,0
9920,1.697872,-9.46472,1.647431,1.0504,0.0901,2.3119,0.3322,-9.779099,-0.65459996,1.1909778,0.13899802,0.24446827,-0.133622,-0.717997,0.666937,0.147713,0
9960,3.1593504,-9.213433,1.379156,3.3778,0.96599996,1.4779999,0.27019998,-9.8018,-0.1443,1.8151075,0.14182545,-0.15227997,-0.134344,-0.699508,0.685375,0.151325,0
10000,0.8680993,-10.70755,-2.1207933,0.77809995,-0.6494,-2.2863998,0.2809,-9.7848,0.5898,1.5515802,1.5116994,0.013857914,-0.134791,-0.672128,0.709446,0.16358499,0
10041,1.7069412,-11.003291,-1.6695248,1.0713999,-1.5496,-3.2696998,0.2033,-9.7378,1.1416,0.8938355,0.8844107,0.20158553,-0.150905,-0.647315,0.723923,0.184783,0
10080,2.3921044,-10.029665,0.865887,2.2303,-0.4024,-0.8268,0.103599995,-9.6886,1.5131999,1.3026265,-0.001762783,-0.046373397,-0.16033,-0.630188,0.734208,0.195177,0
10120,-0.32585087,-9.952007,2.372673,0.090399995,-0.22469999,-0.2714,0.14479999,-9.5917,2.0365999,1.6541358,-0.49680796,0.015393804,-0.152428,-0.610677,0.751011,0.199553,0
10160,-2.4621203,-10.016067,2.0669527,-2.5937998,-0.68979996,-0.022599999,0.152,-9.4208,2.7194,2.228768,-1.2048182,0.788627,-0.137328,-0.585223,0.77497697,0.195101,0
10200,-0.5665639,-7.0171084,1.5929773,-0.63159996,1.9986,-2.3388999,0.004,-9.1771,3.4569,0.7663392,-0.7727271,0.6967005,-0.12009,-0.55617,0.803744,0.173918,0
10241,0.7783071,-7.6571264,2.0165594,0.7712,1.6802,-1.7694999,-0.1338,-9.0842,3.6917,0.17542304,-0.3744604,0.3583161,-0.114742,-0.546451,0.81431,0.158503,0
10280,2.1562564,-7.4049497,3.1468236,2.296,1.5818,-0.5808,-0.1778,-9.064199,3.7386,-0.0654673,-0.4280769,-0.005846853,-0.110566,-0.545121,0.817533,0.149188,0
10320,0.7010893,-7.4919553,2.5212953,0.9309,1.6295999,-1.1621,-0.0875,-9.0925,3.6725998,-0.7326892,-0.2976659,-0.40189695,-0.103765,-0.549525,0.816056,0.145969,0
10360,-0.063829415,-8.258665,3.7630146,0.045399997,1.2033,0.1521,0.121199995,-9.2056,3.3781998,-0.96207786,-0.19708258,-0.65664524,-0.096628,-0.564288,0.806247,0.149015,0
10400,-1.5525632,-10.458677,5.1798844,-1.6283,-0.8825,1.9363999,0.4024,-9.316299,3.0354998,-0.64591146,-0.89392275,-0.4295779,-0.086634,-0.581142,0.794437,0.153743,0
10440,-1.0898023,-10.960282,4.218746,-1.9461,-1.5652,1.4948,0.6026,-9.3789,2.8005,-0.3450167,-0.43022367,0.23404865,-0.072296,-0.593285,0.787995,0.14781299,0
10480,1.1130548,-10.476873,4.7046447,0.3796,-1.2743,1.9856999,0.5324,-9.4148,2.692,0.11435397,0.09920452,0.43004912,-0.071113,-0.598069,0.786113,0.138861,0
10520,1.9763752,-9.110962,3.699233,1.6294,0.3148,1.1356,0.3613,-9.4154,2.7182999,-0.30318114,-0.02607522,0.14006267,-0.07735,-0.596171,0.787954,0.133134,0
10560,1.826661,-9.338143,2.411708,1.1314,0.2376,-0.0679,0.3297,-9.4558,2.5784,-0.6377957,0.02607522,-0.11960741,-0.079278,-0.601874,0.783745,0.13117,0
10601,2.5372026,-11.747112,3.6789782,2.3701,-1.4125999,0.5383,0.3854,-9.5021,2.3938,-0.4643972,-0.45704937,-0.4266632,-0.078624,-0.609726,0.777494,0.132492,0
10640,1.3216186,-9.648451,1.4700303,0.8473,-0.9019,-0.21239999,0.5746,-9.5225,2.2718,0.03052581,0.057770398,-0.06330309,-0.066371,-0.616249,0.773759,0.130875,0
10680,0.46917734,-7.679306,0.037502777,-0.0866,1.9233999,-2.0904,0.5671,-9.5334,2.2277,-0.5889439,0.7677878,-0.014660765,-0.07091,-0.617567,0.771521,0.13541,0
10720,1.208526,-9.148656,-0.14432248,0.6374,0.65209997,-2.1269,0.5294,-9.5859995,1.9993999,-0.6843262,0.43425536,-0.16722,-0.082421,-0.62551,0.76244,0.143624,0
10760,1.0632459,-10.052602,-0.28863537,0.7007,-0.391,-2.0715,0.5643,-9.6313,1.7577,-0.53185415,0.48171088,-0.16156512,-0.088878,-0.634414,0.752905,0.150834,0
10801,-0.6524296,-9.954027,0.24177606,-1.0371,-0.34219998,-1.3658,0.58599997,-9.6605,1.5816,-0.34035665,0.28300515,-0.042411502,-0.095861,-0.640444,0.74539,0.158223,0
10840,0.026652254,-9.733292,-0.3472646,-0.7126,-0.047,-1.7736,0.5851,-9.6811,1.4499999,-0.4940678,-0.4087561,0.040945426,-0.098501,-0.645265,0.740645,0.159294,0
10880,0.17899053,-9.727191,0.35978147,-0.47559997,-0.0266,-1.0955,0.58349997,-9.7113,1.2328,-0.6683215,-0.4225093,0.11852531,-0.095278,-0.654267,0.734585,0.15245,0
10920,0.7613849,-9.441055,1.618126,0.1209,0.2401,0.4723,0.5557,-9.7428,0.9691,-0.55196035,-0.53251743,0.1359437,-0.091753,-0.664956,0.727306,0.142966,0
10960,0.7013383,-9.015213,1.026289,0.20439999,0.7123,0.51309997,0.5212,-9.7638,0.75189996,-0.4937711,-0.04283038,0.09971066,-0.088931,-0.673611,0.72125,0.134674,0
11001,0.930291,-9.326919,1.2585744,0.52279997,0.6843,0.47039998,0.49699998,-9.7751,0.6082,-0.37144098,-0.003752458,0.01839577,-0.090322,-0.680797,0.714839,0.131762,0
11040,-0.23642263,-9.917645,0.7771387,-0.6872,-0.0506,0.3269,0.49109998,-9.785399,0.4183,-0.47356018,0.31019735,0.014172073,-0.093011,-0.685578,0.709713,0.132809,0
11081,0.4945559,-9.772796,0.6664404,-0.2715,-0.0343,0.5568,0.4775,-9.7918,0.2472,-0.36620498,0.27213174,0.025953045,-0.098992,-0.69108,0.702946,0.135922,0
11120,0.48809153,-9.681577,1.0790093,0.137,0.10569999,0.86259997,0.4709,-9.7947,0.1082,-0.35849062,0.1481261,-0.04298746,-0.103461,-0.695542,0.697423,0.138265,0
11160,0.25616044,-9.589267,0.63769084,-0.23719999,0.2131,0.8494,0.4922,-9.7942,-0.035499997,-0.37936476,0.4428075,-0.12943362,-0.106861,-0.700279,0.69152397,0.141363,0
11200,0.13471693,-10.017723,-0.30983844,-0.4159,-0.056199998,-0.0673,0.5532,-9.789499,-0.1679,-0.35651842,0.37742746,-0.2257758,-0.111473,-0.70437,0.685122,0.148471,0
11240,0.17963217,-10.392406,-0.3274023,-0.5484,-0.67219996,-0.051999997,0.6367,-9.7816,-0.2911,-0.31613147,0.39831904,-0.10150835,-0.114895,-0.708268,0.678845,0.15596,0
11280,-0.10263464,-10.549169,0.5608274,-0.8023,-0.728,0.81079996,0.6748,-9.774799,-0.4087,-0.33985052,0.13435544,4.19E-04,-0.118961,-0.71182,0.673264,0.160856,0
11321,0.1127669,-10.931313,0.9649878,-0.5588,-1.1560999,1.4211,0.67649996,-9.7684,-0.5385,-0.3356617,0.38102284,0.033807028,-0.123147,-0.715745,0.667791,0.163087,0
11360,-0.7537521,-10.727853,0.99176455,-1.2818999,-1.0741,1.8112999,0.6739,-9.762199,-0.6443,-0.17517869,0.2399304,0.008447394,-0.128683,-0.718537,0.66288,0.166537,0
11401,-1.6370306,-11.287474,0.28740954,-2.1355,-1.3337,0.73039997,0.6841,-9.7576,-0.701,0.050771628,0.030089477,-0.004677482,-0.132173,-0.719913,0.659914,0.16961,0
11440,-0.06545747,-11.296063,0.33629912,-1.2458,-1.5145999,0.66899997,0.66719997,-9.762899,-0.6396,0.60276693,-0.27057838,0.2502453,-0.131966,-0.717773,0.662393,0.169178,0
11480,3.279252,-9.543575,1.9104772,2.1375,-0.0024,2.3472,0.5592,-9.7845,-0.3466,1.5297811,0.104248516,0.26218337,-0.130157,-0.707625,0.674755,0.164407,0
11520,3.4689302,-9.476385,0.26408044,3.3572,0.4836,0.4806,0.4673,-9.7901,0.32349998,1.7501813,1.2123232,0.11779227,-0.130587,-0.682972,0.698649,0.168475,0
11560,1.2770576,-10.40996,-1.4325274,0.9321,-0.6128,-2.3509,0.3917,-9.7528,0.9485,1.0580535,2.029905,0.113900185,-0.14537,-0.656127,0.715971,0.189072,0
11601,1.298548,-10.718228,-0.72537607,0.99079996,-0.9481,-2.0986,0.29369998,-9.721499,1.2552999,0.95624846,1.1662639,-0.005375614,-0.164069,-0.639591,0.72148,0.208494,0
11640,0.32242236,-10.149156,0.56997323,-0.0548,-0.706,-1.765,0.2705,-9.649799,1.7257999,0.9649227,-0.32939598,-0.006806784,-0.170919,-0.618703,0.733108,0.22482,0
11680,0.29320353,-9.142144,2.6882482,-0.0327,0.2714,0.6938,0.2877,-9.5681,2.1304,1.6158084,-0.40903535,0.13946927,-0.16141,-0.604419,0.747339,0.223847,0
11720,-0.8805395,-9.1325,1.6026595,-1.0828999,0.2961,-1.0541999,0.2591,-9.4064,2.7605999,1.7042791,-0.75293505,0.57260764,-0.148744,-0.580622,0.769663,0.219932,0
11760,0.07229531,-6.997849,2.7834225,-0.3452,2.118,-0.91609997,0.1294,-9.237599,3.2893,0.39543924,-0.74810046,0.52106804,-0.137208,-0.559878,0.790846,0.205601,0
11800,0.6899323,-8.111181,2.4620438,0.5173,1.281,-0.90809995,0.0513,-9.1949,3.4088,-0.042586032,-0.5619611,0.29007372,-0.13004,-0.556137,0.798236,0.191361,0
11841,1.4082502,-7.8607197,3.388571,1.2462,1.2447,0.0676,0.0285,-9.2077,3.3744,-0.25902432,-0.06223844,0.010960667,-0.12537,-0.558778,0.799338,0.181951,0
11880,0.18699673,-7.6609473,2.7530158,0.1501,1.5999999,-0.41459998,0.0557,-9.2492,3.2584999,-0.5710892,-0.1712517,-0.27262044,-0.124729,-0.564182,0.795854,0.180987,0
11920,0.0335284,-8.615151,3.6784897,-0.1683,0.96699995,0.34649998,0.2076,-9.3223,3.0367,-0.5720317,-0.58934534,-0.4092797,-0.11945,-0.575238,0.788455,0.182128,0
11960,-0.7558782,-10.08839,4.7250624,-0.98289996,-0.65059996,1.9401,0.4337,-9.371699,2.8551998,-0.17819811,-0.6744476,-0.18987437,-0.105769,-0.585861,0.783251,0.179154,0
12000,-0.52796936,-10.109947,3.7199574,-1.1409999,-0.7108,1.1139,0.5232,-9.389999,2.7793,-0.14229669,-0.06263987,0.13446017,-0.097727,-0.590545,0.781816,0.174552,0
12040,-0.7486094,-10.006777,3.4014518,-1.1064,-0.5934,0.4623,0.4592,-9.4092,2.7247999,-0.2208016,-0.38341394,0.4651477,-0.09902,-0.592678,0.781043,0.169995,0
12080,-0.44803172,-9.700874,4.632608,-1.2673,-0.3439,2.0406,0.35529998,-9.4332,2.6567,-0.30400145,-0.33370695,0.32911673,-0.099855,-0.596627,0.780529,0.157599,0
12120,1.4777396,-10.659761,2.6697073,0.78499997,-1.0077,0.3107,0.274,-9.4854,2.4743,-0.66994464,-0.09105383,-0.13367477,-0.098888,-0.603378,0.77686,0.150478,0
12160,3.4358327,-11.958941,2.5822136,3.1144998,-2.1931999,0.4175,0.35689998,-9.545199,2.2203999,-0.5003161,-0.04420919,-0.41954225,-0.097945,-0.614161,0.768157,0.152139,0
12201,1.0219603,-10.611551,2.3831885,0.9475,-1.5263,0.52239996,0.5136,-9.574699,2.0565999,-0.24548055,-0.08974483,-0.13053317,-0.091775,-0.621865,0.762206,0.154604,0
12240,0.82193905,-7.6548376,0.71820307,0.1493,1.731,-1.0859,0.53709996,-9.596,1.9488,-0.46542695,0.4892507,0.036320303,-0.092706,-0.62613,0.758304,0.156014,0
12280,2.2154508,-8.288123,0.85722,1.5454999,1.6696,-0.9181,0.4942,-9.6326,1.7713,-0.4656364,0.6458067,-0.13367477,-0.101908,-0.631904,0.751252,0.161032,0
12320,0.95521945,-10.358869,-2.0994947,0.8538,-0.4913,-3.1692,0.5092,-9.6585,1.6197,-0.50848424,0.8581784,-0.23794073,-0.112216,-0.636256,0.743648,0.171965,0
12361,-0.8104181,-10.3457575,-0.66506135,-1.1302,-0.7129,-2.5416,0.54179996,-9.6918,1.3943,-0.6544112,0.28904396,-0.09524262,-0.122135,-0.643423,0.733422,0.182155,0
12401,-0.6187766,-10.00015,0.4090733,-1.5067999,-0.31469998,-0.7942,0.5359,-9.7174,1.2061,-0.07993608,-0.33461452,0.2512227,-0.126592,-0.649983,0.726505,0.183537,0
12440,1.2847286,-9.3824835,0.68004906,0.65489995,0.1963,-0.7087,0.45319998,-9.7284,1.15,-0.5624847,-0.84357,0.3090978,-0.123978,-0.65268,0.727004,0.173501,0
12480,1.0678906,-9.13974,1.9174204,0.7866,0.5981,0.9694,0.3803,-9.7575,0.90349996,-0.54606116,-0.23621286,0.09934414,-0.118458,-0.663248,0.72184,0.158163,0
12521,0.31415758,-9.355448,-0.026738446,-0.0058,0.52739996,-0.6109,0.3588,-9.7751,0.6992,-0.5279272,0.060178954,-0.03396411,-0.11877,-0.671001,0.715513,0.153918,0
12560,0.4858697,-9.628224,1.2638416,0.07,0.3134,0.0749,0.3712,-9.7866,0.5036,-0.31281537,-0.16212364,-0.06939429,-0.120372,-0.67921,0.707548,0.153487,0
12600,-0.32924104,-9.742868,0.92932373,-0.75879997,0.0925,0.573,0.39589998,-9.7913,0.3782,-0.30187213,-0.027209682,0.029216811,-0.118008,-0.683221,0.704562,0.151246,0
12640,0.5759683,-9.455871,1.1548862,0.118999995,0.2836,0.76129997,0.38099998,-9.796,0.24859999,-0.3021514,-0.07847001,0.05900958,-0.119368,-0.687801,0.700178,0.149765,0
12681,0.8502002,-9.386803,1.5825578,0.4366,0.41349998,1.6184,0.3674,-9.7985,0.1565,-0.1179668,0.13081242,-0.0310145,-0.119283,-0.691222,0.697311,0.147441,0
12720,0.22403024,-9.793808,-0.25884193,-0.0245,0.1291,-0.2778,0.38729998,-9.7984,0.1013,-0.24687682,0.6140068,-0.08724901,-0.122698,-0.69266,0.694411,0.15152,0
12760,-0.046715666,-9.621597,-0.18273504,-0.3858,0.1971,-0.1691,0.4152,-9.7978,0.022,-0.2231578,0.33550465,-0.027541295,-0.130304,-0.694188,0.689595,0.159943,0
12800,-0.5836585,-10.575696,0.22490174,-1.0794,-0.6468,0.2776,0.4224,-9.7972,-0.0814,-0.45022514,0.53693306,0.045570545,-0.135848,-0.696921,0.684709,0.16437,0
12840,-0.20118956,-10.874302,-0.19553925,-0.6897,-1.0318999,-0.042799998,0.41509998,-9.7946,-0.2513,-0.5009444,0.25602233,-0.046949357,-0.144568,-0.701366,0.677033,0.169734,0
12881,-0.10998962,-11.126794,1.2376491,-0.53429997,-1.3921,1.5099,0.43629998,-9.787399,-0.4312,-0.36416295,0.21223204,-0.036756635,-0.148617,-0.707034,0.669595,0.172212,0
12920,-0.5915881,-10.273069,0.97487104,-1.0299,-0.5959,1.6119,0.4513,-9.7795,-0.5724,-0.33576643,0.38289034,0.05258677,-0.153401,-0.711095,0.663343,0.17546,0
12960,-1.1925232,-10.45794,0.3455599,-1.5351,-0.49429998,1.1427,0.4367,-9.7731,-0.6818,-0.1919513,0.14477506,0.08803441,-0.159367,-0.71369797,0.658387,0.17821799,0
13000,-1.1203427,-11.855569,-0.2755439,-1.6854999,-1.9375,0.60789996,0.4008,-9.7715,-0.7256,0.19175932,-0.11646582,0.16151276,-0.162675,-0.714517,0.656716,0.17811699,0
13040,1.4258524,-10.283757,0.4820869,0.6268,-0.7801,1.013,0.3243,-9.7816,-0.6207,0.72076863,-0.31733575,0.1831374,-0.161854,-0.710952,0.661885,0.173947,0
13080,3.268114,-9.331057,1.1051731,2.9979,0.482,1.3208,0.2676,-9.7983,-0.30089998,1.280007,-0.08984955,0.012025318,-0.157048,-0.700486,0.674895,0.170792,0
13121,1.3036045,-9.731989,-0.25276068,1.3979,0.30769998,-0.4253,0.2593,-9.8005,0.22919999,1.2709312,0.8595747,0.039165188,-0.153944,-0.681624,0.693337,0.175989,0
13160,1.6639414,-10.668889,-1.8607736,1.1738,-0.75409997,-2.044,0.19909999,-9.7781,0.7201,1.1372216,1.3735218,0.19737929,-0.166026,-0.660089,0.706695,0.193127,0
13200,1.3322966,-10.786041,-0.083787486,1.4936,-1.1501,-1.4017,0.114599995,-9.7351,1.1761,1.201153,0.02734931,-0.046163958,-0.176712,-0.639379,0.71887,0.207826,0
13240,0.5062683,-9.818898,1.6598139,0.2981,-0.3847,-0.6428,0.13329999,-9.667,1.6430999,1.234611,-0.025464354,-0.05157448,-0.170629,-0.622179,0.73399,0.212216,0
13281,-0.6060299,-9.67789,1.7359878,-0.3139,0.1201,-0.4184,0.1374,-9.5639,2.164,1.73758,-0.4870341,0.16299629,-0.165318,-0.601942,0.750293,0.217702,0
13320,-0.87262905,-9.532984,1.0660422,-1.1581,-0.39479998,-1.5827999,0.118599996,-9.392099,2.8184,1.4884168,-0.94094193,0.50235814,-0.150084,-0.577731,0.773924,0.211523,0
13360,0.52745223,-7.9410596,2.4210453,0.33859998,1.2045,-1.2458,0.0536,-9.236199,3.2953,0.51057863,-0.6442883,0.28434905,-0.136507,-0.559774,0.792916,0.198246,0
13400,0.7685292,-7.656705,3.6196594,0.7766,1.5155,0.21059999,0.037299998,-9.184299,3.4373999,0.09112364,-0.2873161,0.12678072,-0.128622,-0.555153,0.799776,0.188729,0
13440,1.1957889,-7.533461,2.5273862,1.1043,1.6264,-0.9058,0.0332,-9.1776,3.4555,-0.17118189,-0.058922317,-0.07665486,-0.12572,-0.554987,0.80132097,0.184574,0
13480,0.2628929,-7.5612626,3.0774877,0.3463,1.6337999,-0.5187,0.085,-9.2045,3.3822,-0.44493678,-0.1918466,-0.34163076,-0.123906,-0.558749,0.798904,0.184927,0
13521,-0.7647751,-8.286649,4.144947,-0.8569,1.3808999,0.87659997,0.2489,-9.2654,3.2029,-0.52532667,-0.3320489,-0.36135298,-0.11823,-0.568081,0.792605,0.187303,0
13560,-0.76271605,-10.044203,3.775206,-1.2215999,-0.5724,0.7597,0.4076,-9.3225,3.0158,-0.40421826,-0.22661355,-0.13236576,-0.111204,-0.577814,0.786552,0.187349,0
13600,-0.60239077,-10.25449,3.9396014,-1.1431,-0.7848,0.97429997,0.4468,-9.3453,2.9384,-0.2247635,0.02794272,0.07482226,-0.109244,-0.582963,0.783263,0.186327,0
13640,-0.8280299,-9.68514,4.618176,-1.0412999,-0.52709997,1.7816,0.3744,-9.3677,2.8765,0.17353809,-0.42062435,0.38440877,-0.111045,-0.583957,0.783366,0.18166,0
13680,-0.61523324,-8.050379,4.121216,-0.92109996,1.3616999,1.3067,0.2738,-9.3639,2.9003,-0.30831242,-0.42586035,0.20659462,-0.108511,-0.583395,0.786693,0.17026,0
13721,0.9098158,-9.9848175,2.662448,0.17639999,-0.1812,0.0565,0.2746,-9.409699,2.7481,-0.7358308,-0.12472123,-0.24923302,-0.104968,-0.59064597,0.783311,0.162914,0
13760,2.3421037,-11.76074,2.7081103,1.7342,-1.9219999,0.1398,0.384,-9.483,2.4687,-0.669805,-0.13660692,-0.25124013,-0.102932,-0.602938,0.773811,0.164576,0
13800,2.233618,-12.514942,3.1253047,1.6315,-3.4315,0.86149997,0.4964,-9.5327,2.2470999,-0.26785567,-0.7101221,-0.025534166,-0.096687,-0.613252,0.766983,0.162202,0
13840,0.5659702,-9.118327,2.304467,0.363,-0.1451,0.39589998,0.5489,-9.553599,2.1439,-0.18538888,0.562956,0.036808994,-0.089821,-0.618562,0.764775,0.156304,0
13880,1.9342182,-7.38458,1.1337502,1.3673999,2.2151,-0.9842,0.4958,-9.5701,2.0825,-0.31379274,0.5564633,-0.20577432,-0.098988,-0.619692,0.761445,0.162428,0
13920,1.1410669,-9.415083,-0.355606,0.66749996,0.53209996,-1.9511,0.5387,-9.5934,1.9609,-0.5839348,0.8248775,-0.35430184,-0.106407,-0.623456,0.755035,0.172919,0
13961,0.45541546,-10.681491,-1.6879122,-0.077199996,-1.0215,-3.6365,0.60679996,-9.6382,1.7046,-0.9654289,0.576011,-0.124267444,-0.117153,-0.631952,0.743003,0.186701,0
14000,-0.39787802,-10.173154,0.13950534,-0.9377,-0.6494,-1.4140999,0.60429996,-9.6867,1.4043,-0.31215215,0.098576196,0.060283672,-0.126841,-0.642115,0.731147,0.192412,0
14040,0.04873637,-9.393889,0.26510516,-0.7363,0.294,-0.9974,0.5794,-9.6986,1.3307999,-0.080389865,-0.9504365,0.13836971,-0.125891,-0.645209,0.72969097,0.188167,0
14080,1.1412297,-9.772117,1.3539785,0.478,-0.0149,-0.036599997,0.5712,-9.7132,1.2232,-0.6208834,-0.61372757,0.12213814,-0.115759,-0.651329,0.729364,0.174348,0
14120,0.9479985,-9.610115,0.89320004,0.45749998,0.0224,0.1078,0.5525,-9.7408,0.9905,-0.42058945,-0.09489355,0.095870934,-0.111422,-0.661121,0.723484,0.164542,0
14160,1.2725374,-8.980632,0.8965232,0.7249,0.7662,-0.0059,0.5106,-9.7589,0.81979996,-0.38873717,0.12765338,0.11683234,-0.114136,-0.66721,0.718055,0.161859,0
14201,0.28877902,-9.219295,1.0242012,0.103,0.6617,0.313,0.46559998,-9.7720995,0.6774,-0.3577576,0.07298967,0.08925614,-0.117974,-0.671969,0.713273,0.16056,0
14240,-0.38633797,-9.85599,1.651166,-0.7432,-0.1012,1.1559,0.41959998,-9.7838,0.5209,-0.435512,0.2976659,0.10117674,-0.122419,-0.67709,0.70788,0.159585,0
14280,-0.16821662,-9.701009,1.1292588,-0.7066,0.0742,0.7801,0.383,-9.7926,0.3574,-0.3860494,0.035796702,-0.007993608,-0.128484,-0.682106,0.701687,0.160801,0
14320,0.7349433,-9.370839,1.4305546,0.3515,0.4305,1.2835,0.4035,-9.795899,0.21689999,-0.24109977,-0.017139133,-0.19507545,-0.129237,-0.687195,0.696534,0.160934,0
14361,0.04423527,-9.569624,0.4340975,-0.2669,0.2618,0.3876,0.48259997,-9.793799,0.1321,-0.2659358,0.001658063,-0.18125243,-0.12714499,-0.690722,0.692899,0.163176,0
14400,-1.0470994,-9.846585,0.32997847,-1.3910999,0.0925,0.3489,0.5477,-9.7913,0.0138,-0.4185125,0.3308446,-0.076532684,-0.126226,-0.69524,0.688077,0.165097,0
14440,-0.488963,-10.14044,-0.44475648,-1.6851,-0.4484,-0.063599996,0.5671,-9.789599,-0.103,-0.44970155,0.40149555,0.10618583,-0.130118,-0.6988,0.682891,0.168539,0
14480,1.107711,-10.148877,-0.08586565,0.45639998,-0.2057,0.1437,0.534,-9.7871,-0.31039998,-0.44010222,0.24940754,-0.015254177,-0.139712,-0.704492,0.674143,0.172341,0
14521,0.6695146,-10.768171,0.8735772,0.2685,-0.93909997,1.1597999,0.55509996,-9.7794,-0.47329998,-0.3744953,0.39559633,-0.118507855,-0.144557,-0.709392,0.667045,0.17583,0
14560,-1.0786741,-11.979915,0.8742858,-1.5544,-2.0767,1.5615,0.6031,-9.7696,-0.6005,-0.2631433,0.32368878,-0.006963864,-0.149607,-0.712907,0.660563,0.18176,0
14600,-1.7631763,-11.666581,-0.041706994,-2.309,-2.0046,0.8131,0.6027,-9.7633,-0.6954,-0.18060666,0.058503438,0.08431686,-0.154062,-0.715348,0.656187,0.18428,0
14640,-0.29165208,-10.884396,-0.40409335,-1.3658999,-1.1223999,0.3723,0.5618,-9.762899,-0.7351,0.21369812,-0.065327674,0.15660839,-0.156807,-0.716167,0.654892,0.18339,0
14680,2.8476253,-9.700396,1.8944265,2.0949,-0.39609998,2.3074,0.50369996,-9.7733,-0.6304,0.9818001,-0.44251078,0.005532694,-0.155935,-0.712621,0.659776,0.180416,0
14720,3.2346718,-7.7355127,0.8853088,2.4991999,2.0349998,1.1874,0.4917,-9.7921,-0.2067,1.4592,0.3896622,-0.056897733,-0.147673,-0.699096,0.676394,0.178739,0
14761,0.73575735,-9.910903,-0.51487786,0.5011,0.26389998,-0.69049996,0.5089,-9.786099,0.37669998,1.3571332,1.324094,0.101124376,-0.149787,-0.677017,0.694514,0.191989,0
14800,2.2203062,-12.04272,-1.496424,1.3182,-2.2187998,-2.3109,0.4077,-9.755,0.9184,1.2116425,1.5588932,0.27279496,-0.166926,-0.652157,0.7081,0.21312,0
14841,1.4510202,-10.873804,-0.55749464,1.4577,-1.3615,-1.7579999,0.2681,-9.7003,1.4146999,1.234262,0.4976108,0.11194542,-0.183177,-0.627943,0.719999,0.231806,0
14880,-1.4644662,-9.919656,2.1154015,-1.2139,-0.2421,-0.54219997,0.2038,-9.6233,1.8758999,1.1171678,-0.53010887,0.32445672,-0.183088,-0.608958,0.734227,0.237818,0
14920,-0.62241584,-9.31491,1.9553063,-1.2297,-0.1125,-0.027199998,0.102,-9.5176,2.3611,1.7117666,-0.9755518,0.6278647,-0.172374,-0.591522,0.753787,0.228454,0
14960,0.3360406,-7.9637184,0.8392252,0.34489998,1.3021,-2.1255,-0.0311,-9.333799,3.0081,1.5618602,-0.97391117,0.60686845,-0.157485,-0.567298,0.779576,0.213614,0
15000,0.073932946,-7.4817557,2.5445766,0.1423,1.5514,-1.2889,-0.1423,-9.1614,3.4954,0.28195795,-0.69287825,0.4875228,-0.14543,-0.548299,0.799198,0.198743,0
15040,1.5042003,-7.4196215,4.04373,1.5210999,1.7754999,0.34,-0.1972,-9.1305,3.5727,-0.12390092,-0.47719046,0.09929178,-0.13834,-0.546535,0.804868,0.185331,0
15081,0.39483258,-7.2536173,3.4747624,0.493,1.8729,-0.0742,-0.1498,-9.1495,3.5261998,-0.27331856,-0.18558086,-0.25150195,-0.133313,-0.549946,0.804357,0.181096,0
15120,-0.4881011,-7.366987,3.1382525,-0.31469998,1.8930999,-0.21079999,-0.0187,-9.198999,3.398,-0.6480408,-0.048136182,-0.40732494,-0.129154,-0.556835,0.799676,0.183765,0
15160,-1.1673744,-8.765028,4.1052036,-1.175,0.8462,0.696,0.1453,-9.2897,3.1383,-0.78241366,-0.53269196,-0.28412214,-0.125256,-0.569473,0.790617,0.186908,0
15200,-1.2932233,-11.027205,5.351453,-1.3686999,-1.0777999,2.0962,0.2703,-9.3564,2.9247,-0.22265165,-0.59725165,0.022671826,-0.11865,-0.580344,0.784362,0.184114,0
15240,-1.3975626,-10.045735,4.229587,-1.6890999,-0.77459997,1.5340999,0.34559998,-9.3948,2.7905,0.00699877,-0.4399626,0.32412508,-0.108517,-0.58817,0.782243,0.174283,0
15280,-0.65170175,-9.7677965,4.7510157,-1.3048999,-0.4877,1.8367,0.2556,-9.3973,2.7919998,0.09526007,-0.6036047,0.49305552,-0.105489,-0.588658,0.784765,0.162777,0
15320,1.071932,-10.375857,3.8526058,0.9578,-0.7475,1.2648,0.1698,-9.3924,2.8147,-0.20467477,-0.3378085,0.036599554,-0.101479,-0.58838,0.787923,0.150617,0
15362,2.0612354,-11.183105,2.052578,1.5929999,-1.537,-0.5273,0.2113,-9.4268,2.6945,-0.6701017,-0.368439,-0.17395696,-0.09615,-0.594448,0.785066,0.145108,0
15400,1.9320059,-11.708268,2.7158196,1.8894999,-2.3852,0.22909999,0.3267,-9.4904995,2.448,-0.49816933,-0.3252072,-0.14379768,-0.090033,-0.605871,0.777405,0.143021,0
15440,1.2067926,-8.106432,1.5047174,0.85889995,-0.3884,-0.371,0.3963,-9.5358,2.2539,-0.35997415,0.48839548,0.086323984,-0.085948,-0.615118,0.771068,0.140342,0
15480,2.1679497,-7.2730484,0.119250394,1.7688999,2.5909,-1.9621999,0.33949998,-9.5732,2.0995,-0.61152846,0.5691519,-0.18308504,-0.095156,-0.619595,0.765427,0.145491,0
15521,1.4337533,-10.838092,-0.30583534,1.4796,-0.7579,-1.7208999,0.3836,-9.617499,1.8778,-0.55593973,0.5856452,-0.46130797,-0.102421,-0.627507,0.756203,0.154597,0
15560,-1.1072512,-10.903645,-2.3108258,-0.5584,-1.6748999,-3.4654,0.4407,-9.6321,1.7883999,-0.7347138,0.43650684,-0.16872098,-0.10442,-0.6308,0.75203,0.160112,0
15600,-1.8426447,-10.036666,-0.23289835,-2.3016999,-0.4833,-1.8841,0.5169,-9.6861,1.4427999,-0.4189663,0.005131268,0.13857915,-0.11233,-0.643284,0.738049,0.169851,0
15640,1.156476,-9.511933,0.73902303,0.48,0.1591,-0.48959997,0.4123,-9.7108,1.3036,-0.33142057,-1.249935,0.35037485,-0.111774,-0.648876,0.735626,0.15912,0
15680,1.5293969,-9.277158,2.3692446,1.2357,0.5259,1.0294,0.343,-9.7343,1.1378,-0.816849,-0.32578316,0.13166764,-0.102457,-0.656876,0.733567,0.141048,0
15720,0.9152267,-9.249548,1.0368905,0.69439995,0.4148,0.7324,0.31559998,-9.7605,0.8954,-0.4829675,-0.049270645,-0.032044247,-0.10165,-0.66634,0.726255,0.134943,0
15761,0.393511,-9.543767,0.44270706,0.14209999,0.3454,-0.2307,0.3286,-9.7794,0.65239996,-0.5749115,0.21327923,-0.11887438,-0.102031,-0.675519,0.717989,0.133248,0
15800,-0.5982919,-9.800004,0.9284235,-0.7744,0.0132,0.6164,0.36159998,-9.7884,0.47599998,-0.3885103,0.33110642,-0.07195993,-0.10589,-0.683533,0.708966,0.137609,0
15840,-0.1403098,-9.231305,0.68090135,-0.71029997,0.43949997,0.3408,0.3867,-9.7951,0.2769,-0.51358056,0.0914378,0.030630529,-0.109577,-0.68838197,0.703109,0.140565,0
15880,1.445188,-9.087087,0.5509633,0.3881,0.8452,0.40109998,0.37669998,-9.7986,0.118599996,-0.49768063,0.28632125,-0.05927138,-0.113899,-0.695726,0.695016,0.141221,0
15920,0.6913114,-9.084405,1.5164299,0.6127,0.7657,1.6377,0.4071,-9.7977,-0.0981,-0.23359486,0.15430456,-0.25549874,-0.116688,-0.70099,0.688614,0.144244,0
15961,-0.7185191,-9.70076,-0.13081919,-0.8527,0.43719998,0.70919997,0.4899,-9.7927,-0.1796,-0.35217252,0.6450911,-0.21823597,-0.116555,-0.70397,0.684608,0.148833,0
16000,-0.4508186,-10.301321,-0.35042492,-1.1431,-0.51379997,-0.054399997,0.594,-9.7831,-0.3279,-0.34606388,0.46984264,-0.12583824,-0.124358,-0.707995,0.676151,0.161542,0
16040,0.29251397,-10.353897,0.11923125,-0.449,-0.4139,0.38009998,0.6451,-9.7751,-0.44869998,-0.45806167,0.12821189,-0.13667673,-0.128186,-0.711652,0.670258,0.16695,0
16080,0.23593421,-11.011029,1.753523,-0.3303,-1.1834999,2.1859999,0.69519997,-9.762899,-0.6089,-0.41427135,0.37496653,-0.08939576,-0.129971,-0.718029,0.662348,0.169808,0
16120,-0.7841585,-11.861737,0.7753287,-1.0778999,-1.9094,2.1079,0.73469996,-9.7506,-0.7448,-0.29592058,0.4583409,0.02745403,-0.134046,-0.721114,0.657053,0.174088,0
16160,-1.4084992,-11.38984,0.34566525,-2.0288,-1.6456,1.0128,0.73429996,-9.7397995,-0.87549996,-0.21237166,0.123935826,0.08140215,-0.142571,-0.724094,0.650416,0.179775,0
16201,-1.3484622,-11.62226,-0.090280555,-2.4909,-1.8131,1.4365,0.7061,-9.738999,-0.9069,0.42470843,-0.05401794,0.2997603,-0.145108,-0.724697,0.649209,0.179676,0
16240,1.9373401,-10.147517,0.6646017,1.0396,-0.71739995,1.1389999,0.6105,-9.7561,-0.784,0.9652369,-0.41093776,0.3161664,-0.146634,-0.71699,0.658774,0.174468,0
16280,3.6513681,-9.231946,-0.22888568,3.3551998,0.6114,0.53499997,0.4497,-9.7904,-0.3389,1.4445567,0.39673078,0.058817595,-0.143051,-0.704852,0.673839,0.169291,0
16320,0.34730288,-10.143083,-1.287209,0.92789996,-0.12789999,-1.4354,0.4253,-9.7964,0.1409,1.0534458,0.98213166,0.13468705,-0.144086,-0.687061,0.690009,0.176273,0
16360,1.6240063,-11.218032,-0.856971,1.1166999,-1.3989999,-1.5144,0.3489,-9.7823,0.5948,0.90997976,1.5620347,0.2685189,-0.158715,-0.665275,0.703412,0.193463,0
16400,3.067748,-9.34296,-2.597546,2.5881999,-0.1556,-2.5807998,0.2066,-9.749,1.0411999,1.4333866,-0.48301986,-0.10939724,-0.177532,-0.644512,0.712648,0.212648,0
16440,0.932034,-9.157793,2.3458483,1.3614,0.2531,-0.9752,0.2566,-9.687099,1.5047,1.5010704,-1.1384608,-0.3066718,-0.167201,-0.628746,0.728489,0.214535,0
16481,-0.14940776,-9.1998825,3.684686,-0.3067,0.22049999,2.0191,0.4734,-9.576,2.0602999,1.9864988,-0.05899213,-0.03440044,-0.13857199,-0.612981,0.749309,0.208775,0
16520,-1.044705,-8.91097,-1.0034099,-0.6044,0.8533,-2.5024,0.53569996,-9.375299,2.826,0.7983834,-0.35393533,0.13943435,-0.123669,-0.580537,0.776342,0.212072,0
16560,0.0328676,-9.002878,2.1825447,-1.6667999,-0.20289999,-2.2563999,0.5096,-9.2996,3.0702999,0.26331782,-0.70315826,0.5717175,-0.117955,-0.574057,0.783578,0.206275,0
16600,0.94556606,-7.6973586,3.2924294,0.46649998,1.3039,0.0892,0.3572,-9.2472,3.245,0.78401935,0.047944196,0.36273178,-0.112247,-0.567406,0.793535,0.18908,0
16640,0.61530024,-6.6230993,3.021856,0.9352,2.9334998,-0.19229999,0.2611,-9.1804,3.4383,-0.1473756,-0.2036101,0.004380777,-0.113287,-0.558442,0.800394,0.186215,0
16681,0.112690285,-8.15443,2.7030728,-0.2171,1.0943,-0.8294,0.2759,-9.1946,3.3988,-0.5175948,-0.27815312,-0.13405874,-0.110474,-0.560806,0.799951,0.182674,0
16720,0.05264371,-8.182682,3.6459382,-0.182,1.1312,0.0011,0.3487,-9.2511,3.235,-0.5739166,-0.34723327,-0.1699427,-0.107086,-0.56885,0.795111,0.18094,0
16760,-0.95747,-9.994566,4.350427,-1.2792,-0.3365,1.3004,0.4653,-9.3328,2.9752,-0.67270225,-0.6058561,4.01E-04,-0.100974,-0.581469,0.787509,0.177555,0
16800,-1.3294045,-10.584449,4.5366774,-1.9948,-1.2378,1.9289999,0.514,-9.4023,2.7389,-0.23263493,-0.2428102,0.32862803,-0.095132,-0.592708,0.781575,0.169664,0
16840,-0.8653986,-9.652895,4.2115827,-1.4866999,-0.7425,1.5208,0.43739998,-9.4269,2.6666,-0.001937316,-0.36775833,0.5131093,-0.096379,-0.59567,0.781276,0.159668,0
16880,0.6255762,-9.464355,4.0166087,0.1417,0.12329999,1.4935,0.2748,-9.4372,2.6520998,-0.23326325,-0.58585465,0.2731091,-0.094794996,-0.596796,0.783164,0.146635,0
16921,0.5818772,-10.068537,2.9778316,0.5446,-0.4188,0.78419995,0.23869999,-9.4495,2.6115,-0.5577898,-0.15491542,-0.07274532,-0.090803,-0.601448,0.781587,0.138331,0
16960,1.0455575,-11.748079,3.2414331,0.65059996,-1.1803,0.47079998,0.27109998,-9.5088,2.3827999,-0.5366015,-0.5605823,-0.14870206,-0.088787,-0.608789,0.776535,0.13596,0
17000,2.5056949,-12.267678,3.4564133,1.9243,-2.968,1.5487,0.39,-9.564799,2.1287,-0.09072221,-0.18783234,-0.14980161,-0.07961,-0.620586,0.769059,0.130699,0
17040,1.3226815,-8.518704,0.9919274,1.7399,-0.6019,-0.34,0.4468,-9.5675,2.1052,0.095277525,0.39831904,-0.13095206,-0.076586,-0.621342,0.76845,0.132487,0
17080,-0.13214077,-7.845349,-0.67322075,-0.4885,1.9398999,-2.3909,0.46879998,-9.5597,2.1359,-0.34386477,0.5913699,-0.077510074,-0.081161,-0.620086,0.767834,0.139054,0
17120,0.49650955,-9.502223,-2.001725,-0.1933,0.7015,-4.0968,0.44829997,-9.5863,2.0177999,-0.82691956,0.58880424,0.04342379,-0.089264,-0.623819,0.762646,0.145776,0
17161,0.40988734,-10.066574,-0.12756306,0.41709998,-0.5284,-2.6231,0.3967,-9.641,1.7502999,-0.5139122,0.30113912,0.006108652,-0.099718,-0.633099,0.75272,0.150513,0
17200,0.108026385,-9.715344,1.3467002,-0.3655,-0.118099995,0.0379,0.37629998,-9.6747,1.5583999,-0.01308997,-1.1767882,0.018692477,-0.103258,-0.641306,0.745238,0.150611,0
17240,0.17368497,-9.909208,0.759163,-0.28039998,-0.0448,-1.3333,0.42749998,-9.6833,1.4901999,-0.7758338,-0.35416222,0.14006267,-0.091161996,-0.644752,0.746044,0.139291,0
17280,0.47243345,-9.516856,1.4136133,0.1265,0.0605,0.31129998,0.3931,-9.729899,1.1596,-0.51504666,-0.38152897,0.17935003,-0.086581,-0.658315,0.73682,0.127358,0
17320,0.8189894,-8.991913,0.99187946,0.3876,0.77099997,-0.085,0.338,-9.7539,0.9578,-0.5798158,0.07695156,0.11885692,-0.086209,-0.66613,0.730974,0.120475,0
17361,1.2304186,-8.999191,0.9730227,0.87549996,0.5517,0.54219997,0.3012,-9.7699995,0.79139996,-0.3322583,0.3166551,-0.030647982,-0.089191,-0.672081,0.72537,0.119119,0
17400,0.76696813,-9.697638,0.997185,1.1265,0.4028,0.26299998,0.2953,-9.778,0.6881,-0.3588048,0.45081854,-0.12980014,-0.092588,-0.67553,0.72139,0.121167,0
17441,0.16431884,-9.31105,0.59499747,-0.2409,0.2333,0.2518,0.3292,-9.7849,0.5621,-0.40680134,0.17739527,-0.07761479,-0.097952,-0.679518,0.715756,0.127876,0
17482,0.09046251,-9.030958,2.146603,-0.5902,0.45949998,1.0306,0.3646,-9.7954,0.2932,-0.46273914,0.114877574,-0.10756464,-0.101743996,-0.689772,0.704768,0.131012,0
17520,0.45100054,-9.454405,1.210355,-0.027099999,0.6872,1.8161,0.4096,-9.7976,0.096099995,-0.17493436,0.27675685,-0.29349455,-0.103135,-0.69603,0.697927,0.133422,0
17560,-0.8855961,-10.248917,0.36117968,-1.1481,-0.40559998,0.40399998,0.5106,-9.7932,0.0372,-0.13946927,0.32152456,-0.21451841,-0.103353,-0.698153,0.694458,0.1401,0
17600,-1.4758242,-10.044442,-0.6208548,-2.3142,-0.37989998,-0.072799996,0.57839996,-9.789499,-0.0055,-0.3425034,0.39669588,0.05129523,-0.107094,-0.700029,0.690319,0.148149,0
17640,0.5109801,-10.493326,-0.2633526,-0.4093,-0.5665,-0.3761,0.56619996,-9.7892,-0.1436,-0.50591856,0.07735299,0.07035422,-0.112804,-0.703277,0.685474,0.151,0
17680,0.5586918,-11.690389,1.0187137,0.4648,-1.6185,1.0737,0.5452,-9.7866,-0.30879998,-0.44753733,0.27331856,0.03864159,-0.115833,-0.708752,0.67946297,0.150272,0
17721,-0.6389071,-11.679366,0.709469,-0.9217,-2.1073,1.3088,0.5294,-9.778299,-0.5243,-0.36644933,0.15198328,0.043598324,-0.122089,-0.71542,0.670891,0.152224,0
17760,-1.9392077,-11.1938505,0.12549448,-2.2258,-1.5552,0.903,0.51949996,-9.7713995,-0.648,-0.089779735,-0.011292281,0.08173377,-0.124968,-0.719322,0.666099,0.152545,0
17800,-0.26386017,-11.079753,-0.16831237,-1.2451,-1.3389,0.434,0.4802,-9.7719,-0.6694,0.24712117,-0.040648717,0.3085044,-0.126274,-0.719852,0.665681,0.150785,0
17840,3.212578,-9.861526,3.2579148,1.8837999,-0.8584,2.5944998,0.3814,-9.781799,-0.5841,0.8717745,-0.63336253,0.22692771,-0.128092,-0.716502,0.669806,0.146888,0
17881,1.536503,-8.682764,0.5918275,2.1102,1.2581999,2.175,0.2826,-9.7997,-0.2333,1.3495933,0.7684859,-0.104911745,-0.122027,-0.704986,0.684686,0.138953,0
17920,0.22799504,-9.991875,-0.9104957,-0.4095,0.2656,-0.7899,0.3114,-9.7977,0.28,1.5779347,1.0642145,0.15823156,-0.126646,-0.685335,0.700693,0.152659,0
17960,2.773587,-10.85261,-1.4922581,1.4161999,-1.0124,-2.0108,0.2606,-9.764999,0.8634,1.4272779,1.4086553,0.30710813,-0.141358,-0.653022,0.723517,0.173496,0
18001,3.140436,-10.577439,1.6170439,3.3356,-0.8375,-1.5733,0.077,-9.694699,1.4751999,1.6541009,0.31028464,0.006056292,-0.155435,-0.632948,0.735084,0.186727,0
18040,0.11242213,-10.51452,2.724774,0.29029998,-1.2504,-0.1433,0.0725,-9.546599,2.2419,1.8289828,-0.4088783,-0.18346901,-0.152855,-0.601934,0.758181,0.198673,0
18080,-2.6777327,-10.304711,2.172786,-2.1653,-0.75619996,-0.7392,0.1452,-9.373899,2.8769999,1.80666,-0.60257494,0.25220007,-0.139875,-0.577706,0.778562,0.201323,0
18120,-1.3843563,-7.371182,1.8353854,-2.3453,0.2086,-1.4024,0.129,-9.1817,3.4422,1.1329631,-0.41524872,0.6082472,-0.128498,-0.55496,0.798023,0.196634,0
18160,0.38425022,-6.530051,1.505091,-0.4141,2.6035,-2.8121,0.0022,-9.026899,3.832,0.14508922,-0.5688377,0.39522982,-0.122866,-0.538073,0.812923,0.185837,0
18200,1.4599171,-6.302353,3.8686948,1.5609,2.7839,-0.23609999,-0.0703,-8.9915,3.9136,-0.38686967,-0.18144442,0.004677482,-0.116603,-0.535595,0.818609,0.171521,0
18241,0.23484245,-7.9482994,3.7411604,0.2999,1.4268999,-0.0839,-0.0253,-9.0564995,3.7614,-0.78614867,-0.10992084,-0.3037222,-0.115197,-0.543093,0.81411,0.170304,0
18280,-0.06851248,-8.613878,5.138943,-0.1678,0.62869996,1.4339,0.0695,-9.142799,3.5458,-0.93923146,-0.21542598,-0.39777797,-0.112164,-0.559491,0.802852,0.172673,0
18321,-0.8477198,-9.09924,5.355331,-1.0806,0.1286,2.2791998,0.2863,-9.2978,3.1044998,-0.5092347,-0.11568042,-0.1542522,-0.107366,-0.574615,0.792582,0.173499,0
18360,-1.2869505,-9.976523,2.8157728,-1.5071,0.1831,0.912,0.3401,-9.3425,2.9615998,-0.20608848,-0.040194932,0.12692034,-0.106591,-0.581988,0.787254,0.173661,0
18400,-0.99965584,-10.73584,4.7791715,-1.3419,-1.4336,1.7213999,0.2926,-9.3733,2.868,-0.017191494,-0.5896595,0.37990582,-0.107116,-0.58506,0.785837,0.169379,0
18440,0.6942419,-9.38168,4.1030774,-0.5366,-0.5067,1.9971999,0.23259999,-9.3783,2.8569999,-0.27066565,-0.29581586,0.10962413,-0.103403,-0.586206,0.787614,0.159166,0
18480,1.7120458,-10.497138,3.3352377,1.1393,-0.7565,0.641,0.2139,-9.4129,2.7422,-0.45488515,-0.090844385,-0.2846283,-0.100058,-0.591752,0.785456,0.151247,0
18520,2.7380664,-12.958597,2.871481,2.3146,-2.8398,0.3814,0.3135,-9.4478,2.6095998,-0.36557665,-0.4487067,-0.3356617,-0.096947,-0.597953,0.780735,0.153314,0
18560,0.118493825,-9.799113,1.6132132,1.1659,-1.8788999,-0.2321,0.4619,-9.477099,2.4779,-0.4411843,0.3612657,-0.05384341,-0.08942,-0.604703,0.776336,0.153748,0
18600,0.81661433,-7.7962966,0.65695935,-0.29009998,1.4712,-1.757,0.4666,-9.5225,2.2963998,-0.8864353,0.7088829,0.017313667,-0.098734,-0.614232,0.766464,0.159694,0
18640,1.9010345,-7.7686486,1.0272082,1.5095999,1.8679999,-0.6128,0.3928,-9.6054,1.9367,-0.4126482,0.6254736,-0.18622664,-0.110146,-0.623795,0.755864,0.165576,0
18680,1.1662539,-9.634421,-1.9469552,1.0511,0.82119995,-2.82,0.41,-9.6275,1.8197,-0.605734,0.7975457,-0.3021514,-0.116788,-0.627357,0.750237,0.172992,0
18721,-0.56600845,-10.396658,-1.2701527,-0.60499996,-0.802,-2.8325999,0.48729998,-9.6714,1.548,-0.63481116,0.1144936,-0.25579545,-0.129003,-0.635949,0.737127,0.188599,0
18760,-2.0129395,-9.905818,-0.028356925,-2.0451999,-0.3863,-2.4178,0.5545,-9.694799,1.3685,-0.6043202,-1.0055016,0.00837758,-0.128077,-0.64328897,0.730677,0.189432,0
18800,-0.005420473,-10.169649,2.609699,-1.4875,-0.5268,1.6409,0.6049,-9.7308,1.0558,-0.531732,-1.3549515,0.21217968,-0.11051,-0.658752,0.724889,0.16843,0
18841,1.9907595,-9.11192,1.9101516,1.1837,0.51269996,1.2472,0.58129996,-9.7505,0.8709,-0.6319139,0.22310543,0.05073672,-0.101614,-0.667284,0.721525,0.154298,0
18880,1.4827483,-8.954438,1.4097538,1.1938,0.8361,0.6698,0.57129997,-9.7699995,0.6245,-0.32246703,-0.26199138,-0.0877377,-0.102843,-0.676444,0.713362,0.151522,0
18920,-0.5779316,-9.9861965,0.7860068,-0.9115,-0.0409,0.4215,0.60749996,-9.775499,0.4904,-0.48612654,0.41336378,-0.09105383,-0.100951,-0.681764,0.708793,0.150389,0
18960,-0.67054886,-10.026495,-0.10275914,-1.4140999,-0.36789998,-0.30699998,0.6296,-9.781899,0.2972,-0.581247,0.3015929,0.06340781,-0.107245,-0.687999,0.700612,0.155872,0
19000,0.8653698,-9.186906,0.52237654,-0.43199998,0.4411,-0.1319,0.6085,-9.786799,0.1319,-0.54262286,-0.29653144,0.06084218,-0.111952,-0.693353,0.694349,0.156864,0
19040,1.5609907,-8.984308,2.5045457,1.0857999,0.77559996,2.5498998,0.5855,-9.788899,-0.0652,-0.31663764,-0.53613025,-0.15564846,-0.10845,-0.70338297,0.686569,0.148701,0
19081,0.14762647,-9.824099,0.16552553,-0.33879998,0.1223,0.98759997,0.6526,-9.781899,-0.24229999,-0.27085763,0.57124627,-0.24361305,-0.103111,-0.70832497,0.682801,0.146377,0
19120,-0.62150604,-10.1189785,-1.2706603,-0.89519995,-0.16049999,-0.76769996,0.73829997,-9.7734995,-0.3207,-0.33885568,0.19893263,-0.18809414,-0.107088,-0.710553,0.677919,0.15515,0
19160,-0.46735775,-10.367324,-0.3321045,-1.4379,-0.4089,-0.0486,0.82989997,-9.7605,-0.4613,-0.34286994,0.005375614,-0.15997688,-0.108782,-0.715322,0.671182,0.161227,0
19201,0.69288194,-11.576291,0.8842553,-0.2687,-1.8139,1.3253,0.8865,-9.748,-0.59959996,-0.469895,0.002321288,-0.005026548,-0.107809,-0.720382,0.665631,0.162362,0
19240,-0.33327287,-12.067437,1.435324,-0.99039996,-2.2983,2.4325,0.8825,-9.7344,-0.7948,-0.37294194,0.2617994,0.15208799,-0.11033,-0.72688,0.658245,0.161816,0
19280,-1.313756,-11.901395,0.19282901,-1.8227999,-2.3128998,1.3334,0.84209996,-9.7296,-0.8921,-0.039741147,0.17690657,0.23361231,-0.115402,-0.729497,0.654332,0.162371,0
19321,-0.82139313,-11.964812,0.41834366,-2.132,-2.2019,1.11,0.7689,-9.732699,-0.92359996,0.47499135,-0.038013272,0.3010344,-0.120894,-0.729711,0.653206,0.161948,0
19360,2.6856525,-9.459501,0.07640376,1.6128,-0.053099997,0.5013,0.62299997,-9.7633,-0.6778,1.0218554,-0.052080624,0.22394319,-0.124545,-0.720449,0.663494,0.158794,0
19400,4.151632,-8.330395,1.5764956,3.5972998,1.3575,2.0914,0.5312,-9.7912,-0.1399,1.9891692,0.32607988,0.12075933,-0.123026,-0.70142597,0.683901,0.158567,0
19440,1.1383951,-9.7029915,-0.16361018,1.6011,0.9108,-0.2225,0.4974,-9.7858,0.399,1.42274,1.9474733,0.07375761,-0.123371,-0.681491,0.702374,0.164371,0
19480,1.2298343,-10.2004,-2.608435,1.1664,-0.48499998,-2.7366998,0.4222,-9.733399,1.1186,0.95291483,0.58559287,-0.07663741,-0.143066,-0.649996,0.721263,0.191872,0
19521,0.93414086,-11.122484,-0.24571213,1.0723,-1.3442999,-3.2909,0.39859998,-9.6881,1.4668,0.7350105,-0.83391833,-0.09164724,-0.151798,-0.634166,0.72944,0.20665699,0
19560,-0.65140486,-10.874521,3.7950873,-0.37199998,-1.6362,0.86249995,0.46019998,-9.6511,1.6773,1.900489,-0.22048745,0.22638665,-0.14229,-0.62788,0.737365,0.204479,0
19600,-0.5629439,-9.279925,1.041947,-1.3022,-0.9428,0.0036,0.5057,-9.573299,2.0651999,2.0517218,-0.9423731,0.6187367,-0.122834,-0.593843,0.77034,0.197069,0
19640,1.1550107,-6.760153,1.5776544,0.74259996,2.4677,-1.8073,0.32619998,-9.2539,3.2293,0.6760882,-0.46591565,0.3253643,-0.110006,-0.568549,0.794462,0.182975,0
19681,0.78129506,-7.9278626,2.7854047,0.5362,1.4096,-1.0349,0.2776,-9.176499,3.4473999,0.046251226,-0.32121038,0.17235126,-0.103786,-0.559874,0.803379,0.174212,0
19720,1.5728182,-7.4390626,3.8016284,1.1687,1.6502,0.38349998,0.26299998,-9.1719,3.4606,-0.010157816,0.03185226,-0.053878315,-0.10073,-0.559829,0.804955,0.168789,0
19760,0.17505446,-7.6747665,3.2426112,0.0681,1.4991,-0.1091,0.28489998,-9.1777,3.4434,-0.23815018,0.10077531,-0.17156586,-0.100468,-0.56066,0.804152,0.170013,0
19800,-0.5622256,-7.8146076,2.9742305,-0.80719995,1.4449999,-0.44579998,0.3365,-9.2217,3.3191998,-0.5337042,0.07962192,-0.1707281,-0.101646,-0.56607,0.799379,0.173855,0
19840,-0.90328443,-8.613447,3.911024,-1.2049,0.9005,0.65459996,0.3909,-9.2852,3.1306999,-0.5645442,-0.30843458,-0.112556286,-0.10167,-0.574492,0.793081,0.175053,0
19880,-1.1453383,-10.073278,4.3206816,-1.5356,-0.6318,1.3087,0.4569,-9.3513,2.9178998,-0.47741735,-0.31637582,0.18839084,-0.097666,-0.584541,0.787026,0.171355,0
19921,-1.0462565,-10.327005,4.6064057,-1.4089999,-0.92359996,1.7363,0.4087,-9.402699,2.7551,-0.15735888,-0.04103269,0.4033107,-0.097637996,-0.592283,0.783047,0.1628,0
19960,-0.30144915,-10.027664,5.299987,-0.9916,-0.678,2.3888,0.2953,-9.4227,2.7008,-0.13730505,-0.41818088,0.4128402,-0.100588,-0.593445,0.782766,0.158057,0
20000,0.8099872,-10.856891,4.3876905,0.2536,-0.97489995,2.4375,0.1679,-9.4397,2.6520998,-0.3210184,-0.53632224,0.07340855,-0.101224,-0.595425,0.783233,0.147537,0
20040,2.1292787,-11.401763,2.4008288,1.6633999,-1.8564999,0.15519999,0.1997,-9.479899,2.5023,-0.30344296,0.007993608,-0.2920634,-0.094196,-0.602943,0.779958,0.138746,0
20081,1.8330009,-11.5281105,2.617552,1.7213,-2.0952,0.1219,0.31829998,-9.505899,2.3885,-0.16676621,-0.3081728,-0.25354397,-0.090755,-0.608262,0.77556497,0.142405,0
20120,0.7881233,-8.403523,1.2599247,0.278,0.7312,-0.7849,0.4182,-9.5178995,2.3244998,-0.25354397,-0.008726646,0.022514747,-0.084628,-0.611815,0.773561,0.141854,0
20160,1.7685682,-8.348208,0.03569276,1.124,1.6019,-1.7127,0.4155,-9.535399,2.2521,-0.53878313,0.45212755,-0.15894714,-0.085112,-0.614759,0.771281,0.141248,0
20200,1.300492,-10.197796,-0.59573483,1.4147999,0.113199994,-2.5084,0.4287,-9.5767,2.0671,-0.58829814,0.9207485,-0.3003886,-0.094184,-0.624298,0.760565,0.151393,0
20240,-0.48789042,-9.95759,-1.3817992,-0.71779996,-0.41669998,-3.2096,0.47259998,-9.625199,1.8170999,-0.4488463,0.18329448,-0.027122416,-0.104289,-0.629662,0.752406,0.16289,0
20281,-0.5505898,-9.624701,-0.33617467,-1.1812999,-0.0222,-2.162,0.46539998,-9.656899,1.6422,-0.5339486,-0.32604495,0.15814428,-0.107527,-0.636163,0.746334,0.163455,0
20320,1.1534785,-9.736289,1.0420045,0.6217,-0.014,-0.54249996,0.42749998,-9.6945,1.4153,-0.6814638,-0.76721185,0.13796827,-0.104289,-0.645723,0.7407,0.153386,0
20360,0.72635293,-9.352202,1.8873109,0.4851,0.1416,0.486,0.417,-9.7227,1.2104,-0.56672585,-0.42940336,0.068294734,-0.099022,-0.654581,0.735562,0.143755,0
20400,-0.09314402,-8.980315,1.7229154,-0.3152,0.7721,0.99189997,0.4034,-9.755,0.92029995,-0.44598398,-0.013334315,0.053197637,-0.0946,-0.66642797,0.727282,0.134106,0
20440,-0.8855099,-8.842668,1.1378491,-0.5923,0.80799997,0.7364,0.39609998,-9.761499,0.8522,-0.45305258,0.4404862,0.047368236,-0.095276,-0.670609,0.72363,0.132528,0
20480,0.088614196,-9.691336,0.07350199,-0.4578,0.34899998,-0.1451,0.3597,-9.783,0.5766,-0.48279297,0.32532936,-0.01282817,-0.102478,-0.678304,0.714955,0.135056,0
20521,0.9965242,-9.889069,1.1239724,0.4558,-0.20109999,0.7448,0.35799998,-9.7918,0.4025,-0.37179002,-0.25480062,-0.0744732,-0.106994,-0.684125,0.708258,0.137456,0
20560,0.65898013,-9.541104,1.3877941,0.82879996,0.3412,1.0669,0.38709998,-9.7948,0.2863,-0.4272566,0.013334315,-0.19320795,-0.104658,-0.688799,0.704408,0.135688,0
20600,-0.013694834,-9.516301,1.0935277,-0.1831,0.2338,1.1594,0.4283,-9.7953,0.1938,-0.42819908,0.15547393,-0.1340762,-0.103396,-0.693614,0.699645,0.136767,0
20641,0.5630396,-9.330826,0.596817,-0.0837,0.4662,0.7899,0.5151,-9.7923,-0.122999996,-0.39376372,0.41479495,-0.06487389,-0.110005,-0.702975,0.68754,0.144956,0
20680,0.23189281,-10.015243,0.3333495,-0.1953,-0.1068,0.5554,0.5484,-9.788,-0.2514,-0.38952258,0.6657733,-0.14721853,-0.115408,-0.70675397,0.681486,0.150845,0
20720,-0.35279998,-10.431968,0.12318646,-0.9708,-0.5657,0.4626,0.608,-9.7802,-0.3841,-0.34686673,0.51529104,-0.08585274,-0.123553,-0.710155,0.674173,0.160948,0
20760,-0.6106938,-10.84399,0.4296347,-1.2004,-0.9576,0.8696,0.6512,-9.7708,-0.5263,-0.453262,0.37885863,-0.085416414,-0.130126,-0.714077,0.667022,0.168054,0
20800,-0.65099305,-11.234226,0.94590116,-1.3455,-1.4367,1.4297999,0.6787,-9.7624,-0.63549995,-0.39554396,0.29651397,-0.0752935,-0.13366,-0.717313,0.661933,0.171585,0
20841,-1.2420735,-11.382092,0.6483115,-1.8630999,-1.5983,1.5617,0.7157,-9.7479,-0.7967,-0.21165608,0.2181138,0.06791076,-0.138348,-0.722139,0.654539,0.175934,0
20880,-1.1236275,-12.444026,-0.43841663,-1.9712,-2.5714,0.564,0.68649995,-9.7457,-0.8484,0.15948819,0.063180916,0.2120575,-0.142874,-0.723079,0.65216297,0.177274,0
20920,0.80563927,-11.165226,0.9977309,-0.941,-2.5145,0.7736,0.6272,-9.7535,-0.8031,0.6872059,-0.27874655,0.25340435,-0.145394,-0.720976,0.654198,0.176286,0
20960,4.2627225,-7.9455028,2.6958327,3.2875,1.5956999,2.8931,0.51739997,-9.7843,-0.412,1.5701505,-0.6504493,-0.20104447,-0.13879,-0.708341,0.6712,0.168758,0
21000,1.2088037,-8.197306,0.50628746,0.7726,1.6273999,0.505,0.6002,-9.7865,0.1814,1.8389138,1.0204242,-0.25579545,-0.12764099,-0.688808,0.692396,0.172736,0
21040,0.2107568,-10.16467,-1.1210035,-0.6462,-0.08,-1.9013,0.6364,-9.746099,0.8814,1.3648823,1.4795331,0.22151719,-0.137071,-0.660505,0.711491,0.196783,0
21081,1.8265556,-11.380455,-1.6737864,1.5711,-1.5501,-3.1415,0.498,-9.6882,1.4352,1.1484267,0.55503213,0.13550736,-0.15264,-0.635237,0.726078,0.21444,0
21120,1.6015965,-10.557596,0.9070098,1.5295,-1.9334999,-3.1276,0.44149998,-9.6382,1.7547,0.7254461,-0.5063724,0.13960889,-0.155009,-0.621695,0.73568,0.21964,0
21160,-0.017314866,-9.742304,4.918514,-0.15359999,-0.2069,1.7610999,0.4184,-9.58,2.0535998,1.707124,-0.5496565,0.23293164,-0.143048,-0.605694,0.753121,0.21326,0
21200,-0.02681506,-8.819875,0.65672,-0.46719998,0.4468,-1.8153,0.3888,-9.3708,2.8646,1.9544895,-1.031542,0.37969637,-0.130053,-0.580543,0.776377,0.208073,0
21240,0.49623182,-7.6819687,1.2727289,0.13949999,1.4067999,-2.5405998,0.3703,-9.1638,3.4722,0.5263913,-0.5321858,0.37568212,-0.112141,-0.557125,0.799428,0.194808,0
21281,0.47898397,-7.4834704,3.213986,0.0711,1.61,-0.7226,0.3211,-9.1023,3.6352,-0.12688543,-0.47835985,0.19285887,-0.105373,-0.550955,0.807128,0.184086,0
21320,0.9976734,-7.2445383,3.5699558,0.37939999,1.7052,0.0103,0.3168,-9.1092,3.6181,-0.24853489,-0.04256858,-0.058817595,-0.102851,-0.552221,0.807584,0.179666,0
21360,0.46554774,-7.7433558,3.3144562,0.2234,1.5076,-0.151,0.34039998,-9.150499,3.5103,-0.43111378,-0.007278023,-0.25546384,-0.09929,-0.559859,0.803622,0.175754,0
21400,-0.2015439,-8.339119,3.5034068,-0.6162,0.9647,0.0795,0.45929998,-9.2219,3.3035998,-0.66847855,-0.41666245,-0.21802653,-0.097381,-0.56751597,0.797928,0.178189,0
21440,-0.47090116,-10.065128,4.1548405,-0.6871,0.7392,0.31599998,0.491,-9.2416,3.2437,-0.7575427,-0.6397504,-0.081454515,-0.089694,-0.581857,0.789092,0.175298,0
21481,-0.64678884,-10.4772,3.537912,-1.3814,-1.0902,0.7561,0.6949,-9.3832,2.7644,-0.49356166,-0.23561946,0.21647319,-0.083292,-0.593391,0.782435,0.169541,0
21520,-0.789895,-10.083775,4.4030423,-1.4114,-0.6265,1.5322,0.59749997,-9.4351,2.6060998,0.047560222,-0.2104518,0.51333624,-0.085412,-0.599856,0.778929,0.161698,0
21560,1.4611143,-9.373051,4.7961607,-0.13669999,-0.3706,2.1828,0.45049998,-9.436,2.6322,0.023352506,-0.38957494,0.3564486,-0.087077,-0.598152,0.78233397,0.150278,0
21600,1.924354,-10.268473,3.2286193,1.6761999,-0.5546,0.89989996,0.3929,-9.4579,2.5616999,-0.66277134,-0.10602875,-0.20561723,-0.084535,-0.601862,0.78113097,0.143,0
21640,1.8831737,-11.619943,3.2539022,1.4395,-1.8814,0.78959996,0.4825,-9.5138,2.3288,-0.51621604,0.020210912,-0.4217239,-0.082685,-0.611901,0.773178,0.144688,0
21680,0.737213,-11.553096,3.348971,0.7344,-2.5807,1.4650999,0.60899997,-9.55,2.1436,0.066985734,-0.1767844,-0.32902947,-0.080319,-0.61988,0.766151,0.149365,0
21721,-0.051092267,-8.224015,0.57241535,-0.9702,1.00E-04,-0.6592,0.7348,-9.542,2.1399999,-0.13817772,0.2842967,0.036442474,-0.075051,-0.620191,0.765572,0.153717,0
21760,1.7187016,-8.224246,-0.24668896,0.92429996,1.4144,-2.3004,0.69369996,-9.5637,2.0551999,-0.72633624,0.64983845,-0.00710349,-0.081775,-0.623315,0.761735,0.156681,0
21800,1.9991968,-9.555241,-0.57259727,1.4102,0.1937,-2.1996999,0.65889996,-9.6179,1.7976999,-0.75949746,0.47087237,-0.113324225,-0.092718,-0.632253,0.75164497,0.163363,0
21840,0.1708215,-10.113386,-0.21219331,-0.2437,-0.42819998,-1.8453,0.6752,-9.6627,1.5315,-0.44640285,0.054785885,-0.08915142,-0.099354,-0.641905,0.741436,0.168397,0
21880,-0.4234098,-9.80439,0.5583374,-1.235,-0.3507,-1.1923,0.6956,-9.681399,1.3982999,-0.18435913,-0.32847098,0.119415425,-0.100494,-0.646997,0.73665,0.169239,0
21921,0.32303527,-9.875373,0.5733634,-0.4849,-0.107099995,-0.93729997,0.6712,-9.6994,1.2804999,-0.63763857,-0.8866098,0.22167426,-0.097173996,-0.652125,0.734221,0.161892,0
21960,0.6712384,-9.218797,2.1042545,0.0398,0.37849998,1.1351,0.62689996,-9.734,1.0124999,-0.4884653,-0.35416222,0.11634365,-0.08985,-0.663551,0.72807,0.146762,0
22000,0.37505648,-8.936301,0.6708649,-0.1927,0.87759995,-0.0923,0.5948,-9.7526,0.8376,-0.3892957,0.23732987,0.06410594,-0.088987,-0.67035097,0.723025,0.141224,0
22040,-0.034993652,-9.521941,0.4249229,-0.68979996,0.3818,-0.38619998,0.56229997,-9.7668,0.68039995,-0.5380676,0.38734093,0.041538835,-0.094744,-0.675521,0.717104,0.143022,0
22081,-0.15439728,-9.719415,0.7378355,-0.7863,0.16669999,0.1554,0.54109997,-9.7773,0.5309,-0.44868925,0.08662069,0.023579398,-0.100399,-0.680329,0.711263,0.14552,0
22120,0.7437061,-9.580801,0.95113015,0.0729,0.2463,0.542,0.5252,-9.788199,0.2915,-0.43402848,-0.27108455,-0.006649705,-0.103435,-0.688794,0.702853,0.144428,0
22160,0.35099953,-9.51562,1.2566016,-0.2008,0.2394,1.0225999,0.5342,-9.7911,0.1345,-0.42043236,-0.26293385,-0.04061381,-0.100806,-0.694967,0.697951,0.140437,0
22200,0.35892913,-9.414021,0.6148693,-0.1519,0.45499998,0.96519995,0.5539,-9.790899,-0.023699999,-0.34293973,0.25137976,-0.10131636,-0.098957,-0.701014,0.692621,0.138066,0
22240,-0.007144298,-9.64416,0.3690518,-0.63049996,0.1574,0.54899997,0.5912,-9.787499,-0.1567,-0.3327121,0.25240952,-0.09871582,-0.10171,-0.705441,0.686953,0.14178,0
22281,-0.013828909,-10.135862,-0.023798365,-0.39589998,-0.071899995,0.3674,0.6214,-9.7837,-0.2498,-0.39095375,0.56187385,-0.1067967,-0.104228,-0.70843,0.682778,0.145181,0
22320,-0.1024431,-10.078104,-0.34660378,-0.9166,-0.3469,0.16589999,0.6813,-9.773399,-0.4306,-0.4409749,0.59657097,-0.011571533,-0.113885,-0.713434,0.673528,0.156206,0
22363,1.198681,-10.634393,0.71780086,0.5112,-0.6504,0.7851,0.695,-9.7642,-0.58889997,-0.5040511,0.03609341,-0.075118974,-0.121784,-0.717772,0.666036,0.162375,0
22400,-0.90016234,-11.487188,1.6465788,-1.2844,-1.6064,2.3660998,0.7254,-9.749599,-0.7676,-0.41502184,0.20242329,-0.06021386,-0.122514,-0.723966,0.659101,0.162626,0
22440,-2.1149611,-11.945497,-0.12299493,-2.2961,-1.877,2.2238998,0.7565,-9.734,-0.91959995,-0.14964452,0.31901127,0.14421655,-0.124434,-0.728976,0.652764,0.164339,0
22481,-1.1453861,-11.874991,-0.6239098,-2.4721,-2.2763,0.3621,0.7461,-9.726999,-0.9995,0.16416568,-0.090826936,0.31370547,-0.13101,-0.730249,0.649542,0.166331,0
22520,0.8930756,-10.141819,0.27592698,-0.0819,-0.7815,1.0343,0.58199996,-9.7508,-0.8675,0.70054024,-0.44879395,0.2698628,-0.131103,-0.725979,0.656028,0.159348,0
22560,2.9763758,-7.2996626,-0.21141759,2.064,2.2475,0.4556,0.49539998,-9.778999,-0.5438,1.268994,-0.5803045,0.09203121,-0.1252,-0.71558,0.670074,0.152542,0
22600,3.554949,-8.249548,0.9392836,2.7784,2.4108999,0.51699996,0.48709998,-9.7855,-0.419,1.495049,-0.56557393,-0.010890855,-0.122339,-0.711615,0.675161,0.150974,0
22640,1.2602886,-11.795351,-1.9263556,1.3496,-1.1596,-0.689,0.5136,-9.7747,0.6008,1.4356205,2.0909045,-0.09028588,-0.119821,-0.674543,0.709544,0.164862,0
22681,2.510627,-11.3797655,-0.9574604,2.1374,-1.8025,-2.8781,0.49379998,-9.7216,1.1897,1.1332772,-0.031712633,-0.16587609,-0.136125,-0.642436,0.728736,0.194136,0
22720,0.15117948,-10.69375,4.5064335,-0.18339999,-1.1547999,1.4872999,0.5855,-9.6226,1.7978,1.6987988,-0.6200631,0.07955211,-0.119825,-0.627675,0.745397,0.189864,0
22760,-0.2097608,-9.196531,1.1584202,-0.8152,-0.032899998,-0.39,0.49159998,-9.4598,2.5376,2.3085296,0.20532054,0.41538835,-0.116071,-0.597613,0.769884,0.191478,0
22800,-0.3450715,-7.741498,1.317127,-0.6957,1.2580999,-2.389,0.3721,-9.2407,3.2617998,1.2826076,-0.8902052,0.58253855,-0.107143,-0.567638,0.795371,0.183552,0
22840,0.11221145,-7.176064,2.442009,-0.4551,2.083,-1.6944,0.2884,-9.134,3.5576,0.4102571,-0.55806905,0.5565157,-0.099933,-0.555537,0.807407,0.171712,0
22881,1.0275531,-6.9925246,3.98263,0.754,1.9621999,0.25059998,0.14819999,-9.072,3.721,0.095853485,-0.3909014,0.25857052,-0.094644,-0.548927,0.816004,0.154459,0
22920,0.6648219,-7.010481,3.0593874,0.68659997,2.2653,-0.45189998,0.17629999,-9.080999,3.6978998,-0.3321187,-0.21478021,-0.16308357,-0.090757,-0.550655,0.815964,0.150809,0
22960,-0.14037684,-7.5685024,2.9365075,-0.40179998,1.6631999,-0.6674,0.294,-9.155399,3.5015,-0.95664984,-0.2517463,-0.37461746,-0.085971996,-0.560426,0.809776,0.150972,0
23000,-0.44315717,-9.382138,3.705707,-0.93179995,0.2864,0.4103,0.461,-9.288899,3.1102,-1.1739608,-0.26150268,-0.33979815,-0.08169,-0.578574,0.796945,0.153155,0
23041,-0.46616066,-10.534631,5.694589,-1.2767999,-1.0957,2.2841,0.5805,-9.3875,2.776,-0.8388401,-0.6241297,-0.107459925,-0.077115,-0.593727,0.786408,0.151994,0
23080,-0.037052665,-10.475992,3.5347514,-0.7527,-0.9266,1.4532,0.6547,-9.4781,2.4301,-0.34499922,-0.1725258,0.21315706,-0.069759,-0.609284,0.776692,0.143714,0
23120,0.33308133,-10.229773,3.688488,-0.3532,-0.854,1.1013,0.5592,-9.511499,2.3212,-0.12810716,-0.20188223,0.37428585,-0.072516,-0.613508,0.774151,0.137976,0
23160,0.7080804,-9.85147,4.6627173,0.27879998,-0.1655,2.3848999,0.4664,-9.523399,2.2928,-0.038624138,-0.40006438,0.1677436,-0.071095,-0.614851,0.774885,0.128279,0
23201,0.758598,-10.026639,3.3011062,-0.32569999,-0.9303,1.2354,0.4434,-9.533299,2.2556999,-0.18812904,-0.20793852,0.14350097,-0.068292,-0.616705,0.77460897,0.122438,0
23240,2.6109822,-9.888034,3.0613413,2.1066,0.115499996,0.8911,0.4332,-9.5494995,2.1880999,-0.3606374,-0.25715682,-0.32693508,-0.067637,-0.619564,0.772761,0.120018,0
23280,0.7969148,-11.509703,2.6865242,0.0156,-2.1113,1.0227,0.6315,-9.5781,2.0075,-0.26656413,-0.10473721,-0.30885348,-0.056717,-0.628035,0.766701,0.120514,0
23320,0.30903396,-9.452366,1.5126758,-0.25239998,-0.3108,-0.4877,0.69369996,-9.5938,1.9096999,-0.21708405,0.57424825,-0.04464552,-0.058526,-0.631827,0.762455,0.126608,0
23361,1.6533781,-7.930688,0.7291302,0.78679997,1.7949,-0.9716,0.6645,-9.601,1.8836,-0.033580136,0.32316515,-0.09738937,-0.065914,-0.63215,0.760513,0.132896,0
23400,1.6926911,-9.572679,-1.6601491,1.1567999,0.3137,-3.0475,0.726,-9.6104,1.8118999,-0.6345319,0.4535587,-0.37322122,-0.069453,-0.634661,0.75661397,0.141127,0
23440,-0.6288898,-10.465381,-0.96232545,1.00E-04,-0.4289,-3.797,0.8138,-9.6425,1.5905,-1.1251963,0.38892916,-0.19521508,-0.074383,-0.64802897,0.742602,0.151878,0
23480,-1.4732002,-10.219354,1.0023948,-2.4775,-0.5785,-0.2881,0.8693,-9.6988,1.1608,-0.057107173,-0.19954349,0.13439035,-0.079998,-0.65909797,0.731334,0.156011,0
23521,0.6753181,-9.753997,-0.021997925,-0.3312,-0.2153,-1.1403999,0.8117,-9.6991,1.1992999,-0.08766789,-0.6493148,0.32951817,-0.074870996,-0.658213,0.734644,0.146446,0
23560,1.6097463,-9.179647,1.8883069,0.908,0.5786,0.7582,0.7198,-9.7282,1.0069,-0.8085761,-0.35651842,0.19914207,-0.072414,-0.665894,0.730235,0.134525,0
23600,0.8949717,-9.188381,0.9838445,0.43219998,0.4931,0.95419997,0.6857,-9.7505,0.7913,-0.41575488,0.26551694,-0.02029818,-0.073105,-0.674023,0.723437,0.130334,0
23640,0.64487344,-9.256606,0.5018343,0.024699999,0.55649996,-0.1687,0.6911,-9.764999,0.58059996,-0.37713075,0.28712413,-0.064332835,-0.079439,-0.681238,0.715086,0.135114,0
23680,-0.2695488,-9.381976,1.0590512,-0.7675,0.4448,0.53279996,0.69879997,-9.771,0.4576,-0.38664278,-0.002617994,0.05581563,-0.082072,-0.685515,0.710321,0.137022,0
23720,-0.5302103,-9.523617,1.4172524,-1.2626,0.29729998,1.1386,0.65459996,-9.7803,0.2931,-0.48295006,0.23116885,0.18044959,-0.085218,-0.691224,0.704752,0.135171,0
23760,0.74355286,-9.821283,1.5385715,0.054899998,-0.096999995,1.3607,0.5922,-9.788,0.12,-0.28932324,-0.11945033,0.057491146,-0.091539,-0.696776,0.69847697,0.135102,0
23801,0.5087487,-9.594266,1.1581998,0.2366,0.22739999,1.7196,0.58709997,-9.788899,0.0455,-0.2616074,0.3036,-0.12817699,-0.091357,-0.699522,0.696023,0.133693,0
23840,0.1698351,-9.7910595,-0.10717404,-0.41979998,0.0659,0.0896,0.6551,-9.7843,-0.0896,-0.30867893,0.38793433,-0.14493214,-0.096519,-0.703744,0.68939,0.142016,0
23880,0.30717608,-9.804361,0.34274432,-0.4062,-0.0264,0.3302,0.6906,-9.7801,-0.20269999,-0.42675045,0.1413193,-0.04811873,-0.098541,-0.707549,0.684548,0.145107,0
23920,-0.08371087,-10.452472,0.22212446,-0.7615,-0.5532,0.6207,0.7125,-9.7731,-0.3854,-0.5380152,0.5910383,-0.056740653,-0.103744,-0.713363,0.676788,0.149354,0
23961,0.33417308,-10.951969,0.93315446,-0.4443,-1.0837,1.2499,0.74829996,-9.7623,-0.5536,-0.37355283,0.2157227,-0.11533136,-0.110587,-0.718331,0.668884,0.15609,0
24000,-0.41050026,-11.228289,1.5416361,-0.7556,-1.2985,1.9439,0.78499997,-9.7535,-0.6495,-0.30778882,0.2970725,-0.04818854,-0.112035,-0.721501,0.664609,0.158676,0
24040,-1.2268465,-10.759858,1.4745889,-1.9983,-1.0634,2.1817,0.79209995,-9.7434,-0.7794,-0.14884168,0.2652028,0.12346459,-0.11861,-0.725031,0.658447,0.163423,0
24080,-1.0036973,-11.011527,0.6367236,-1.8065,-1.1388999,1.4828,0.7572,-9.7464,-0.77669996,0.25501007,0.068364546,0.09428269,-0.122522,-0.724287,0.658243,0.164653,0
24120,0.53613836,-12.121738,1.0898311,-0.49589998,-2.2712,1.3669,0.7215,-9.761499,-0.602,0.8807106,-0.102293745,0.10236356,-0.122678,-0.718085,0.664932,0.164828,0
24161,2.8124688,-9.754629,0.86669147,1.8687999,-0.37849998,1.3541,0.6907,-9.781099,-0.1478,1.4512063,0.16809265,-0.06602581,-0.1193,-0.702358,0.681848,0.165959,0
24200,1.0654293,-9.593174,-0.42562205,1.7235,0.4534,0.3295,0.7084,-9.7795,0.1706,1.4489025,1.0694156,0.020455258,-0.118605,-0.677403,0.703886,0.177765,0
24240,1.6971538,-10.411857,-2.0169616,0.9684,-0.5692,-2.8932,0.67899996,-9.727699,1.0397,1.2008214,0.4776617,0.06956882,-0.127632,-0.656275,0.718313,0.192454,0
24280,0.7092391,-9.509453,-0.5926128,0.1431,-0.029299999,-2.2533,0.6414,-9.6792,1.4394,0.83203334,-0.0564614,0.10412634,-0.127004,-0.640686,0.73141,0.196032,0
24320,0.9556504,-8.635493,2.0053067,0.3197,1.0084,-0.33519998,0.61179996,-9.6285,1.7572,0.98857194,-0.04113741,0.067073,-0.123987,-0.628517,0.742389,0.196088,0
24361,1.8671039,-9.415467,3.3177698,1.2465,0.0839,0.89419997,0.597,-9.527699,2.2438,1.7883167,-0.40336305,-0.002111848,-0.11769,-0.609707,0.758834,0.196406,0
24400,0.6541246,-8.663093,1.1823814,0.7302,0.5918,-0.29279998,0.62299997,-9.3883,2.7640998,1.549451,-0.2343279,0.09138544,-0.1079,-0.589428,0.776221,0.195987,0
24440,-1.0801777,-9.612586,2.6723313,-1.8872,-0.34,-0.93009996,0.60249996,-9.2312,3.2542999,0.5332155,-0.33489376,0.3814766,-0.098756,-0.569492,0.793252,0.191509,0
24480,0.48351383,-8.325061,3.7698238,-0.38599998,0.5606,0.057699997,0.50369996,-9.160999,3.4628,0.7195469,-0.38404223,0.36082938,-0.095924,-0.560575,0.801904,0.183037,0
24520,1.2937117,-6.621778,4.241003,0.99789995,2.5216,0.7333,0.4632,-9.1019,3.6207,0.006318092,-0.19758873,-0.028082348,-0.091837,-0.554036,0.80834,0.176619,0
24561,-0.26108292,-7.6922445,3.3308518,-0.65349996,1.5,-0.2995,0.5064,-9.11,3.5946,-0.1404641,-0.039077923,-0.14348352,-0.089401,-0.555637,0.80756,0.17641,0
24600,-0.38927805,-7.9611998,3.4699547,-0.8811,1.2143999,-0.1358,0.5378,-9.1186,3.5681,-0.16402604,-0.056531213,-0.19013616,-0.088459,-0.557001,0.806524,0.177323,0
24640,-0.89612097,-9.034166,4.1144166,-1.5342,0.3315,0.755,0.66139996,-9.1771,3.3931,-0.47846457,-0.53220326,0.045867253,-0.081679,-0.565974,0.801429,0.175246,0
24680,-0.7913124,-9.737524,4.269235,-1.4108,-0.3549,0.9812,0.68509996,-9.2457,3.1963,-0.45818383,-0.40118137,0.24052383,-0.076617,-0.575465,0.79695797,0.166813,0
24720,-0.8240746,-10.160226,4.696916,-1.3805,-0.90309995,1.6933999,0.6156,-9.2957,3.0627,-0.19840904,-0.5330759,0.4791278,-0.074698,-0.581604,0.794859,0.15606,0
24760,0.12046665,-9.418511,4.3482533,-1.0531,-0.3134,1.2804999,0.52349997,-9.3265,2.9852998,-0.47315875,-0.43127087,0.5077337,-0.073392,-0.585154,0.794423,0.145258,0
24801,1.705907,-10.13276,3.445754,0.82909995,-0.3452,1.2688,0.39659998,-9.3927,2.791,-0.8121017,-0.31189033,0.13491395,-0.073825,-0.593501,0.790428,0.132395,0
24840,1.8764508,-10.518829,2.741945,1.2188,-1.0203999,0.4635,0.40899998,-9.5021,2.3902,-0.8797332,-0.028064894,-0.31660274,-0.072476,-0.610639,0.77836597,0.126537,0
24880,2.0566576,-11.587093,3.1967957,1.6702,-1.9023,0.8603,0.5754,-9.5615,2.1013,-0.3818257,-0.7757639,-0.3482979,-0.066223,-0.623279,0.768483,0.128723,0
24920,0.5208825,-9.567249,1.9808475,-0.0875,-0.5212,0.47129998,0.7151,-9.569699,2.0195,-0.09121091,-0.007627089,-0.07237881,-0.054044,-0.627782,0.766534,0.124073,0
24961,1.1800445,-8.553612,-0.07203674,0.1158,1.0181,-1.6294999,0.7177,-9.5793,1.9727,-0.49900708,0.68570495,-0.012653637,-0.056185998,-0.629492,0.764598,0.12638,0
25000,1.3937988,-9.315542,-0.59811944,0.9011,0.6418,-2.0319,0.66389996,-9.6305,1.7268,-0.5833414,0.78579956,-0.11342895,-0.073248,-0.637642,0.754008,0.139707,0
25040,0.10008721,-9.839374,-0.65536964,-0.3466,-0.1069,-2.2496998,0.68,-9.660399,1.5437,-0.5152037,0.15725416,-0.1438675,-0.080641,-0.644041,0.746333,0.147289,0
25080,0.11180922,-9.862733,-0.009270349,-0.7421,-0.22049999,-1.4346,0.7224,-9.6841,1.3658999,-0.36662385,-0.3902207,-0.010349803,-0.079908,-0.651129,0.740212,0.147414,0
25120,0.41574833,-9.441468,0.83058685,-0.3805,0.30089998,-0.67829996,0.73359996,-9.7055,1.198,-0.4856204,-0.7437197,0.10957177,-0.073573,-0.658408,0.736035,0.139057,0
25160,0.663213,-9.690207,2.0020123,-0.20359999,0.025799999,0.5793,0.7233,-9.7246,1.0387,-0.48942524,-0.2597748,0.10384709,-0.067892,-0.665153,0.73213,0.130178,0
25201,0.7103692,-9.333087,1.1956068,-0.012,0.3559,0.3893,0.6886,-9.7506,0.7874,-0.4729144,0.28680995,0.004694936,-0.068802,-0.674625,0.724083,0.125893,0
25240,0.8876551,-9.343152,1.1667615,0.2607,0.4836,0.5369,0.6904,-9.7607,0.64959997,-0.2703864,0.31110492,-0.07195993,-0.074184,-0.67924297,0.718434,0.130293,0
25280,-0.212404,-9.619557,1.0247375,-0.6785,0.262,0.51339996,0.7079,-9.7647,0.5652,-0.29517007,0.2755875,-0.009651671,-0.077623,-0.682022,0.714697,0.134266,0
25320,-0.34588552,-9.94899,0.8272542,-1.0673,-0.19119999,0.3692,0.6947,-9.7723,0.4349,-0.45383796,0.41601667,0.039304815,-0.083652,-0.686168,0.709298,0.138095,0
25361,0.255921,-9.361597,1.6411008,-0.7299,0.1183,0.7917,0.6809,-9.7778,0.3164,-0.31154126,0.11840314,0.001605703,-0.090235,-0.691427,0.702638,0.141723,0
25400,0.45259988,-9.790188,1.8198998,-0.2024,0.092199996,1.7247,0.68299997,-9.781199,0.1777,-0.29497808,0.34766957,-0.055414204,-0.092439,-0.694544,0.698975,0.143168,0
25440,-0.14655387,-9.770124,0.4902942,-0.8362,-0.0742,0.50949997,0.6989,-9.7814,0.069,-0.3368311,0.84672904,-0.031101767,-0.100133,-0.69746,0.693416,0.150651,0
25480,-0.08983044,-9.590827,0.24104823,-0.8236,0.21959999,0.1435,0.70589995,-9.781099,-0.0357,-0.3432539,0.5490457,0.005986479,-0.111223,-0.699606,0.687278,0.160709,0
25520,0.34883517,-9.753623,0.018598158,-0.7037,0.2978,0.3004,0.7037,-9.7809,-0.094399996,-0.43559927,0.5083271,0.005148721,-0.115597,-0.701038,0.684309,0.164021,0
25561,0.62794167,-10.649179,0.6915412,0.1086,-0.7284,1.0294,0.7076,-9.7773,-0.2698,-0.41601667,0.24263567,-0.14837044,-0.12614,-0.707513,0.673655,0.172342,0
25600,-0.16902106,-10.988065,0.7814004,-0.5758,-1.125,1.1596999,0.75229996,-9.7701,-0.385,-0.41069344,0.42193335,-0.17071065,-0.127462,-0.709497,0.670741,0.174566,0
25640,-0.9851374,-11.015445,1.1066766,-1.6771,-1.2772,1.3705,0.81409997,-9.755199,-0.58599997,-0.32445672,-0.10431833,0.08395033,-0.13341,-0.715598,0.661252,0.181289,0
25680,-1.0620296,-11.523839,0.8604665,-1.9092,-1.8094,1.8472999,0.7716,-9.7525,-0.6803,-0.021293016,0.3195698,0.15934856,-0.136009,-0.718463,0.658137,0.179348,0
25720,0.42589018,-10.673121,-0.77698547,-1.1281999,-1.2356,0.3139,0.72609997,-9.7576,-0.6572,0.28483772,0.28899163,0.23441517,-0.140962,-0.716685,0.658531,0.181184,0
25761,3.219167,-9.144309,0.2901102,2.1464,0.0099,0.7301,0.64169997,-9.7716,-0.5219,0.7956258,-0.38927823,0.06499606,-0.14606,-0.70774,0.666763,0.182198,0
25800,1.6165458,-9.002935,2.0926378,1.5691999,0.9307,2.2186,0.6274,-9.786099,-0.0905,1.3526477,0.063180916,-0.10513864,-0.135263,-0.697368,0.680964,0.177957,0
25840,-0.22010374,-10.271403,0.32903993,-0.78749996,-0.1604,0.028099999,0.6502,-9.7736,0.472,1.4120935,0.9757961,0.10000736,-0.134866,-0.676567,0.698995,0.188339,0
25880,1.2131803,-10.991502,-1.4729128,0.8743,-1.267,-2.9715,0.5476,-9.7359,1.0396,1.2763593,0.42477822,0.2180789,-0.144959,-0.652672,0.715753,0.201751,0
25920,0.79556453,-10.435597,0.3767516,0.8817,-0.7407,-1.8657999,0.4813,-9.6935,1.4049,1.1111813,-0.34887385,0.11442378,-0.146489,-0.637893,0.727583,0.205559,0
25960,-0.35909194,-9.970959,2.9105449,-0.58379996,-0.3405,0.4944,0.46539998,-9.5996,1.9492999,1.4174691,-0.5642475,0.16283922,-0.134335,-0.615356,0.749901,0.202333,0
26001,0.73542213,-8.690215,1.3343844,0.2873,0.4678,-0.4872,0.4089,-9.4507,2.5858,1.8474659,-0.73879784,0.286234,-0.12396,-0.593961,0.770373,0.19588,0
26040,-0.18327135,-9.08093,0.81369334,-0.6533,0.0167,-2.6067998,0.3689,-9.2741995,3.1657999,0.9766339,-0.68814844,0.606275,-0.10876,-0.571626,0.792268,0.183645,0
26080,0.7508695,-7.588317,2.6001031,0.2943,1.5286,-1.1953,0.2253,-9.1876,3.4213998,0.13292427,-0.507821,0.46795768,-0.103895,-0.561036,0.803605,0.169296,0
26120,2.1338274,-7.5891886,4.285784,1.8441,1.5861,0.3769,0.176,-9.1862,3.428,-0.12552407,-0.3492404,-0.01441642,-0.09816,-0.562615,0.80564,0.157389,0
26160,0.39168182,-7.56178,3.3949013,0.35909998,1.6887,0.2809,0.2586,-9.2104,3.3572998,-0.2999872,-0.16659167,-0.28338912,-0.094119,-0.565654,0.804049,0.1571,0
26201,-1.0295067,-7.895943,2.7049403,-1.3091999,1.4814999,-0.6123,0.3874,-9.268,3.1817,-0.77965605,-0.40399137,-0.24579471,-0.089092,-0.574316,0.79824,0.158223,0
26240,-1.0995994,-9.729854,4.0080657,-1.5137,-0.14479999,0.99219996,0.533,-9.3675995,2.8518999,-0.8519825,-0.7490953,-0.17163567,-0.080719,-0.589979,0.788485,0.153946,0
26280,-1.4781419,-9.797868,3.677896,-2.1822999,-0.4446,1.3456,0.62299997,-9.4306,2.6160998,-0.48064622,-0.36379644,0.17938495,-0.073331,-0.601027,0.781925,0.14826,0
26320,0.34825101,-11.146043,4.351021,-0.5877,-1.581,1.7808,0.589,-9.4782,2.4466999,0.13917255,-0.11786208,0.3845833,-0.071395,-0.608441,0.778363,0.137302,0
26360,2.1392765,-10.524345,5.1125016,1.4057,-1.1321,2.6523,0.428,-9.468699,2.5156999,0.05921902,-0.27282986,0.26398104,-0.073613,-0.605238,0.781709,0.131139,0
26400,1.5897787,-10.252326,3.2955132,1.3892,-0.7956,1.0386,0.3955,-9.4816,2.4721,-0.38627627,0.19085175,-0.1521578,-0.073036,-0.607141,0.780945,0.127159,0
26441,1.0510738,-10.483271,2.8451352,0.877,-0.79819995,0.44,0.45659998,-9.5183,2.3156,-0.39767328,0.41116467,-0.3395887,-0.076533,-0.613253,0.774556,0.134631,0
26480,-0.6406692,-10.337665,2.1249402,-0.41149998,-1.1618,0.5523,0.5194,-9.5372,2.2229,-0.37751472,0.34117696,-0.073879786,-0.077763,-0.61694,0.770533,0.140053,0
26520,0.61509913,-8.890974,0.24068432,-0.106599994,0.4716,-1.6704999,0.47919998,-9.5918,1.9842999,-0.7607541,0.7703883,0.053040557,-0.089164,-0.625201,0.761166,0.147641,0
26560,1.5914737,-8.445039,0.6119867,1.119,1.1825,-1.2602999,0.41079998,-9.645599,1.7212,-0.5687155,0.42917645,-0.02776819,-0.102127,-0.633885,0.751019,0.154044,0
26600,1.2928593,-9.0852,0.5785349,1.1723,0.91889995,-0.5146,0.4359,-9.6665,1.5933,-0.044540804,-0.18336429,-0.22134265,-0.104596,-0.638609,0.746048,0.157,0
26641,-1.2694536,-10.235021,-0.78166854,-1.4549999,-0.2498,-2.2949,0.5135,-9.674399,1.5202,-0.5876698,0.26988026,-0.10655235,-0.102011,-0.641938,0.743145,0.158884,0
26680,-1.397352,-10.785486,0.028634652,-2.2159998,-1.1352999,-1.8479999,0.51949996,-9.701,1.3381,-0.55977947,-0.34723327,0.17385225,-0.105291,-0.648605,0.736542,0.160404,0
26720,0.33237264,-9.830066,1.0410275,-0.4895,-0.2744,-0.3682,0.4601,-9.7308,1.1268,-0.41004765,-0.67785096,0.3071954,-0.101617,-0.659468,0.730414,0.145845,0
26761,1.6849147,-8.615305,1.877169,1.3355,1.1266999,0.8771,0.3707,-9.756499,0.9174,-0.40491638,-0.30147073,0.039933134,-0.09896,-0.665904,0.726756,0.136391,0
26800,0.77194804,-9.071247,1.1558535,0.6113,0.803,0.7068,0.3791,-9.7663,0.80329996,-0.29242992,-0.033841934,-0.07557276,-0.097012,-0.670543,0.723288,0.13347,0
26840,-0.10829453,-9.869914,0.23868276,-0.56049997,-0.0786,-0.29709998,0.4134,-9.776899,0.6403,-0.4428424,0.33281684,-0.06295402,-0.098611,-0.676481,0.717102,0.135693,0
26880,-0.32484528,-9.681155,0.9326086,-0.7075,0.0101,0.35959998,0.4231,-9.787399,0.44439998,-0.4231027,-0.04038692,-0.007452556,-0.103892,-0.683039,0.70937,0.139487,0
26920,0.24885331,-9.000063,1.3967963,-0.46769997,0.50519997,0.9378,0.42479998,-9.7899,0.3831,-0.44181263,-0.05066691,-0.03269002,-0.102177,-0.688022,0.705371,0.13651,0
26960,0.53594685,-9.259787,1.2773832,0.043899998,0.66499996,1.2268,0.4561,-9.795,0.1363,-0.37735763,0.2981546,-0.16495107,-0.103427,-0.694516,0.698596,0.137521,0
27000,-0.23590548,-9.79898,0.76433456,-0.5715,-0.0046,0.7708,0.5323,-9.7921,0.013599999,-0.2820103,0.27216664,-0.23581143,-0.105991,-0.698619,0.6928,0.143959,0
27040,-1.0046166,-9.972789,-0.20049044,-1.6996,-0.2156,-0.0044,0.611,-9.7871,-0.0936,-0.36805505,0.2395639,-0.113568574,-0.108086,-0.702205,0.687507,0.150193,0
27081,0.079458766,-10.186811,-0.31693485,-0.7396,-0.32889998,-0.0316,0.65139997,-9.7817,-0.2527,-0.4339761,0.24944246,-0.081629045,-0.111551,-0.707419,0.680669,0.154282,0
27120,0.5128284,-11.040449,0.6633471,-0.28129998,-1.1218,0.8524,0.68329996,-9.7733,-0.43069997,-0.46863836,0.2589196,-0.059760075,-0.115499,-0.713176,0.673138,0.15787,0
27160,0.19298224,-11.021996,1.3243958,-0.32909998,-1.2477,1.811,0.7018,-9.7651,-0.56549996,-0.33215362,0.26024604,0.005166174,-0.119229,-0.71737,0.667315,0.160789,0
27200,-1.0753604,-11.338978,0.6574957,-1.612,-1.4592999,1.4632,0.6902,-9.759399,-0.66889995,-0.22746876,0.22818434,0.10173524,-0.124501,-0.720143,0.662707,0.16343799,0
27240,-1.0738857,-11.784098,0.541195,-2.0338,-1.8238,1.5541999,0.6609,-9.7577,-0.7206,0.15437438,0.27265534,0.13309881,-0.128494,-0.721271,0.66048,0.164386,0
27281,1.3661698,-11.107372,0.40030092,-0.53029996,-2.0168,0.58669996,0.599,-9.7706995,-0.58669996,0.74949676,-0.1272345,0.08571312,-0.133743,-0.715563,0.664982,0.166973,0
27320,3.4683077,-9.208942,1.2448795,2.6287,0.3047,1.4553,0.578,-9.7877,-0.1902,1.5047705,-0.37184238,-0.1285435,-0.12723,-0.702504,0.68045,0.165186,0
27360,1.7434385,-9.187059,0.8359116,1.5562999,0.59779996,0.61399996,0.64019996,-9.7768,0.4156,1.6969662,0.6363121,-0.17050122,-0.118429996,-0.681749,0.701689,0.169779,0
27400,1.0236266,-10.174859,-1.0191255,0.074099995,-0.24569999,-2.2995,0.64169997,-9.7276,1.0638,1.4475936,0.9164549,0.003211406,-0.12631,-0.655593,0.720173,0.188662,0
27440,1.0209929,-10.397569,0.36735672,0.6608,-0.7636,-1.5129,0.6336,-9.6509,1.6208,1.407224,0.4309218,-0.14212216,-0.130798,-0.632653,0.73577,0.203181,0
27480,-0.3517274,-10.169056,1.3310325,-0.73899996,-0.6329,-0.5493,0.63119996,-9.5365,2.1968,1.5700284,0.47003463,0.053407077,-0.13078,-0.609005,0.752354,0.214409,0
27521,-0.71976405,-9.725065,2.0331848,-1.4042,-0.61079997,-0.9604,0.53139997,-9.3821,2.8041,1.7583494,-0.57150805,0.5929232,-0.128006,-0.583646,0.77227,0.215801,0
27560,-0.5674449,-8.263003,1.367501,-0.92109996,0.27989998,-1.6493,0.4014,-9.223599,3.3065999,1.6895834,-0.65235174,0.84555966,-0.118093,-0.556051,0.797701,0.201329,0
27600,0.016472107,-6.84033,3.1346133,-0.56259996,2.0879,-1.4311999,0.239,-9.0801,3.6964998,0.5900958,-0.6859493,0.7311533,-0.113758,-0.543525,0.810152,0.187861,0
27641,0.19558713,-7.9610367,4.1109877,0.3098,0.98099995,0.1721,0.062699996,-9.0028,3.8878,0.16098917,-0.3636568,0.28581512,-0.108977,-0.538424,0.817814,0.171472,0
27680,0.51157385,-7.0879674,3.5223975,0.40789998,1.8817999,-0.25599998,0.0431,-8.9916,3.9139,-0.18783234,-0.16411331,0.021694442,-0.105995,-0.537782,0.81982,0.165679,0
27720,-0.1825052,-7.429294,2.8714235,-0.1235,1.6455,-0.88449997,0.074499995,-9.0496,3.7774,-0.68203974,-0.13301153,-0.09388126,-0.104656,-0.54447,0.815943,0.163815,0
27760,-0.10794977,-8.035275,3.2003677,-0.3685,1.3295,-0.3414,0.14289999,-9.1748,3.4599,-1.0954559,-0.33936182,-0.14493214,-0.103198,-0.559412,0.806369,0.161789,0
27800,-0.23368368,-9.936187,4.744666,-0.4477,-0.3062,1.3862,0.27109998,-9.3239,3.0267,-1.079172,-0.9717295,-0.08250172,-0.09597,-0.580058,0.793876,0.155183,0
27841,-0.37772843,-10.508899,4.4444427,-0.8703,-1.2214999,2.2338998,0.3506,-9.4186,2.7086,-0.40901792,-0.36468655,0.20821778,-0.086173,-0.595376,0.78577,0.143757,0
27880,0.55563676,-10.188353,4.6030445,0.1919,-0.7536,1.8258,0.2787,-9.4551,2.5871,-0.17037904,-0.20760691,0.3111224,-0.086382,-0.600524,0.78315,0.136322,0
27920,0.18823214,-9.210006,4.902348,0.183,0.16129999,2.3566,0.2092,-9.4678,2.5465999,-0.061575215,-0.55742323,0.13248794,-0.084391,-0.602522,0.783331,0.127421,0
27960,-0.33844435,-9.840342,3.5712488,-0.6536,-0.20699999,1.3081,0.2613,-9.472,2.5261998,-0.045448374,-0.28473303,-0.16978563,-0.076457,-0.604442,0.783658,0.121176,0
28000,0.41271248,-11.199951,2.4762366,-0.093899995,-1.4224,0.0556,0.3586,-9.4825,2.4744,-0.3088709,-0.07113962,-0.23947662,-0.072091,-0.607158,0.781695,0.122937,0
28041,1.0943705,-11.39981,2.3495452,0.55149996,-2.2017,0.22219999,0.4192,-9.5171995,2.3274,-0.4077438,-0.23689353,0.039374627,-0.06938,-0.613612,0.776926,0.122685,0
28080,1.1188201,-9.233937,2.1822095,0.7421,0.11,-0.2056,0.42479998,-9.5636,2.1276999,-0.5905321,-0.23097688,0.067788586,-0.06646,-0.622173,0.7712,0.117191,0
28120,1.411382,-8.562354,2.133004,1.0167,1.1477,0.22739999,0.4346,-9.601,1.9496,-0.2804395,-0.026389379,-0.14622368,-0.065544,-0.629522,0.765636,0.11492,0
28160,0.9599695,-9.381507,0.39177758,0.5778,0.3161,-0.99149996,0.5009,-9.6128,1.8741,-0.2229658,0.42439425,-0.18992673,-0.065216,-0.63260597,0.762495,0.11898,0
28201,0.5297028,-9.464327,-0.99424493,0.1353,0.12529999,-2.6599,0.5118,-9.6378,1.7380999,-0.6197664,0.72499233,-0.04321435,-0.073196,-0.637199,0.756486,0.127854,0
28240,-0.040672697,-9.593729,-0.33430716,-0.2884,0.1765,-1.9344,0.47469997,-9.6791,1.5029,-0.564998,0.35314992,-0.01706932,-0.084514,-0.645157,0.747191,0.1354,0
28280,-0.8774653,-10.223107,0.11847468,-1.1516,-0.4145,-1.3154,0.4847,-9.7059,1.3154,-0.45376816,-0.5590115,0.019704767,-0.084639,-0.652506,0.741023,0.134,0
28320,0.3838767,-10.172647,1.282593,-0.41099998,-0.5164,0.0055,0.47959998,-9.7315,1.1123999,-0.51729816,-0.788627,0.23212878,-0.075635,-0.661483,0.736233,0.121153,0
28360,1.3596576,-9.160072,1.8324933,0.8541,0.3716,0.85609996,0.39119998,-9.756499,0.909,-0.42406264,-0.2580993,0.2808933,-0.073251,-0.66954,0.730959,0.109765,0
28400,0.9394752,-8.811237,1.2507501,0.70769995,0.98609996,0.52489996,0.3121,-9.7729,0.74979997,-0.40228093,0.26101398,0.08731882,-0.075801,-0.675292,0.726081,0.10507,0
28440,-0.12514971,-9.491994,0.6537224,-0.0903,0.53459996,0.401,0.285,-9.7834,0.61039996,-0.35040975,0.5855754,-0.024207717,-0.082983,-0.679698,0.720532,0.109347,0
28481,-0.7054276,-10.058674,0.52475154,-1.0696,-0.19119999,-0.0336,0.28509998,-9.7919,0.4553,-0.43807763,0.5461659,-0.02167699,-0.09258,-0.684261,0.713678,0.117805,0
28520,0.7453054,-9.365542,0.8699092,0.3802,0.3929,0.55079997,0.2865,-9.7973995,0.3121,-0.32189107,-0.02666863,-0.058608156,-0.097482,-0.6889,0.70793897,0.121385,0
28560,0.79193485,-9.449722,1.4498425,0.6235,0.405,1.0928,0.3277,-9.7998,0.16239999,-0.44413394,0.015498524,-0.17870426,-0.096203,-0.694596,0.702533,0.121359,0
28601,-0.047433924,-9.306664,1.2974945,-0.2987,0.4535,1.3524,0.3771,-9.7993,0.04,-0.37133625,0.42036256,-0.12863077,-0.097704,-0.700171,0.696027,0.125536,0
28640,0.07813717,-9.448392,0.4589206,-0.3891,0.3622,0.6099,0.43809998,-9.7962,-0.109799996,-0.30569443,0.658216,-0.16374679,-0.104993,-0.703262,0.690093,0.134793,0
28680,-1.1510938,-9.914188,-0.3354468,-1.5885999,-0.0165,-0.0412,0.5197,-9.79,-0.2333,-0.4397357,0.54471725,-0.20193459,-0.111864,-0.70667,0.68329,0.145663,0
28720,0.09462842,-10.321126,-0.33901894,-0.821,-0.52669996,0.0188,0.5857,-9.78,-0.4209,-0.631111,0.20516345,-0.101124376,-0.117088,-0.712567,0.674683,0.152772,0
28761,0.2458079,-11.407337,1.3818088,-0.0905,-1.5144,1.8603,0.6299,-9.7631,-0.6737,-0.63906974,0.101717785,-0.09787806,-0.119014,-0.721238,0.66473,0.154218,0
28800,-1.2942767,-11.673945,0.21736477,-1.7816,-1.9373,1.4432,0.66359997,-9.7423,-0.90379995,-0.5725727,0.55312973,0.017139133,-0.124224,-0.728458,0.654912,0.158132,0
28840,-1.6350961,-11.378463,-0.21038328,-2.1882,-1.5545,0.74719995,0.6486,-9.7231,-1.1001999,-0.4159294,0.17819811,0.15505505,-0.132679,-0.733821,0.646284,0.161918,0
28880,-1.4117937,-11.077789,-0.35071224,-2.1625,-1.5314,0.9339,0.564,-9.7167,-1.1987,-0.05363397,-0.12676327,0.32873276,-0.137361,-0.736376,0.643114,0.159016,0
28920,1.5713624,-10.112964,0.14597927,0.70089996,-0.5106,1.2497,0.417,-9.7275,-1.1712999,0.34255576,0.021694442,0.29794514,-0.141654,-0.734612,0.645553,0.153423,0
28961,3.4154246,-8.558744,1.1354166,2.9515,0.81049997,1.8778,0.3337,-9.7542,-0.956,0.9907885,-0.66245717,-0.034260813,-0.140102,-0.727404,0.654901,0.149527,0
29000,0.58971107,-9.088448,1.1675851,0.9411,0.83419997,1.5043,0.3827,-9.7876,-0.4746,1.5498174,-0.17245598,-0.2438225,-0.125432,-0.713067,0.674165,0.145953,0
29040,-1.0105829,-10.420581,-0.5772229,-1.5248,-0.3829,-0.5879,0.4166,-9.7963,0.1662,1.6060171,1.3798224,0.16723745,-0.126268,-0.689621,0.695324,0.158118,0
29081,2.8430283,-11.443509,-2.66218,1.7584,-1.819,-2.3871,0.2518,-9.7724,0.77879995,1.3876939,1.4955727,0.39318776,-0.148281,-0.662045,0.712512,0.178982,0
29120,2.9136667,-11.185787,0.598809,3.1719,-1.6173999,-1.1741999,0.122999996,-9.719,1.3017,1.3827895,-0.50335294,0.053319808,-0.15358,-0.640344,0.729542,0.184769,0
29161,-0.6405639,-9.968623,4.4796667,-0.3823,-0.461,2.2417,0.1568,-9.6202,1.8966999,1.9324111,-0.68301713,0.16228071,-0.136234,-0.62027,0.75168097,0.177988,0
29200,-2.2645319,-9.604627,0.04750096,-2.5365999,-0.28579998,-2.1073,0.0849,-9.4423,2.6467,1.6663008,-0.9758485,0.6249849,-0.124636,-0.591201,0.778186,0.171382,0
29240,-0.3226905,-8.213444,1.6661729,-0.58739996,0.79539996,-1.5662999,-0.0401,-9.2683,3.204,1.2555898,-0.64669687,0.6005154,-0.111119,-0.569466,0.80006,0.152522,0
29280,1.0765384,-7.118613,3.0032291,0.9734,1.9219999,-0.9723,-0.1496,-9.1397,3.5514,0.3659432,-0.43257985,0.24555036,-0.106139,-0.554671,0.812996,0.141812,0
29320,1.250118,-6.8305902,3.0582576,1.4727,2.3104,-0.4648,-0.1096,-9.1161995,3.6128,-0.0888198,-0.4200484,-0.1903456,-0.099312,-0.553113,0.815844,0.136379,0
29361,0.22157858,-6.9342785,2.4117367,0.2545,2.3114,-1.1471,0.069,-9.1565,3.5105,-0.5694486,-0.28103292,-0.47137854,-0.090298,-0.559338,0.81246,0.137454,0
29401,-0.95751786,-8.164907,3.283207,-1.1484,1.2968999,-0.009,0.2854,-9.2599,3.2157998,-1.0929252,-0.5241398,-0.43182936,-0.082255,-0.573823,0.802646,0.140422,0
