time(ms),acc.x,acc.y,acc.z,acclinear.x,acclinear.y,acclinear.z,gravity.x,gravity.y,gravity.z,gyroscope.x,gyroscope.y,gyroscope.z,RV.x,RV.y,RV.z,RV.cos,RV.heading
1,-0.99300003,0.79800004,10.597051,-0.403,-0.042,0.842,-0.577,0.832,9.754,-0.091437496,-0.055,0.0633875,0.034985,-0.038117,-0.989366,0.135931,0
41,-0.40095,0.84405005,9.66405,0.053,-0.036,-0.101,-0.448,0.867,9.757,0.181225,-0.1667875,0.0111375,0.028633,-0.040891,-0.989207,0.137756,0
81,-0.46095002,0.89895004,9.273001,-0.045,-0.03,-0.507,-0.401,0.916,9.755,0.0683375,-0.080575,0.0154,0.026816,-0.043659,-0.989198,0.137336,0
122,-0.43005002,0.94200003,9.64395,-0.028,0.024,-0.112,-0.394,0.915,9.755,-0.1021625,0.0163625,0.03025,0.026372,-0.043412,-0.989165,0.137737,0
161,-0.42000002,0.93900007,10.08195,-0.019,0.04,0.32,-0.389,0.885,9.758,0.0012375,-0.1189375,0.025024999,0.025844,-0.042047,-0.989114,0.138625,0
201,-0.24795002,0.92700005,9.982051,0.089,0.025,0.21,-0.331,0.901,9.759,0.0479875,-0.146575,0.0708125,0.023167,-0.043204,-0.989035,0.139301,0
241,-0.102000006,1.023,9.490951,0.186,0.095,-0.279,-0.282,0.925,9.758,0.01925,-0.030524999,0.023924999,0.02085,-0.044788,-0.988918,0.139995,0
281,-0.21900001,0.966,10.255051,0.06,0.036,0.482,-0.278,0.917,9.759,-0.0276375,-0.0581625,0.0207625,0.020473,-0.04435,-0.988959,0.139905,0
322,-0.186,0.906,9.68295,0.021,-0.04,-0.089,-0.198,0.939,9.759,0.12265,-0.2574,-0.010175,0.0165,-0.046231,-0.989041,0.139238,0
361,-0.19095,0.96105003,9.726001,-0.011,-0.006,-0.032,-0.179,0.959,9.757,-0.0254375,0.054725,0.038775,0.015895,-0.047237,-0.989059,0.138841,0
401,-0.20700002,0.882,9.628051,-0.032,-0.075,-0.143,-0.171,0.946,9.759,-0.047849998,0.0100375,-0.012375,0.015395,-0.046562,-0.989125,0.138658,0
442,-0.15,0.88695,10.09395,0.049,-0.034,0.331,-0.199,0.92,9.761,-0.047849998,-0.0070125,0.0473,0.016417,-0.044897,-0.989113,0.139173,0
481,-0.13995,0.91800004,9.625051,0.042,-0.002,-0.146,-0.179,0.915,9.762,0.011825,0.055825,-0.0144375,0.01559,-0.045007,-0.989081,0.139459,0
521,-0.123,0.99195004,10.02,0.053,0.077,0.208,-0.189,0.916,9.761,0.0012375,-0.10395,-0.00165,0.015823,-0.045036,-0.989107,0.13924,0
561,-0.40395,0.966,9.604051,-0.245,0.028,-0.159,-0.149,0.924,9.761,-0.005225,0.004675,-0.0081125,0.014083,-0.04567,-0.9892,0.138557,0
601,-0.10695001,0.92505,10.387051,0.04,-0.006,0.657,-0.161,0.92,9.762,0.0479875,-0.10725,0.0600875,0.014424,-0.045372,-0.989165,0.138872,0
642,0.043050002,0.99705005,9.68295,0.147,0.037,-0.088,-0.106,0.957,9.759,0.080025,-0.0411125,0.03135,0.012128,-0.047721,-0.989094,0.138808,0
681,-0.23595001,0.94395006,9.975,-0.139,-0.041,0.213,-0.09,0.984,9.756,0.131175,-0.0911625,-0.0081125,0.011528,-0.04924,-0.988945,0.139389,0
721,-0.34095,0.96795005,9.56295,-0.281,-0.062,-0.19,-0.059,1.029,9.752,0.0735625,-0.14973749,0.075075,0.010372,-0.051635,-0.988731,0.140126,0
761,0.25605002,1.0570501,9.934051,0.175,0.012,0.221,0.021,1.066,9.748,0.179025,-0.3139125,0.1442375,0.006372,-0.054277,-0.988367,0.141929,0
801,0.060000002,1.16205,9.496051,-0.11,0.026,-0.246,0.164,1.13,9.739,0.0939125,-0.249975,0.0495,-2.64E-04,-0.058503,-0.987969,0.143159,0
841,0.28005,1.1910001,9.679951,0.078,0.031,-0.066,0.194,1.153,9.736,0.0405625,-0.0411125,0.159225,-0.001316,-0.059827,-0.987567,0.145361,0
881,0.555,1.2409501,9.382951,0.297,0.083,-0.364,0.247,1.152,9.735,-0.1948375,0.0504625,0.039875,-0.003833,-0.0599,-0.987359,0.146689,0
921,0.061950002,1.02495,9.903001,-0.143,-0.044,0.155,0.197,1.066,9.746,-0.139425,0.14739999,-0.0517,-0.001895,-0.055187,-0.987732,0.146064,0
961,0.07395,0.87495005,9.931951,-0.048,-0.135,0.175,0.117,1.006,9.754,-0.1852125,0.223025,0.0495,0.00171,-0.051249,-0.98807,0.145212,0
1001,-0.19500001,0.99705005,9.94095,-0.221,0.041,0.169,0.03,0.952,9.76,-0.01485,0.106975,0.055825,0.005677,-0.048317,-0.988036,0.146346,0
1042,0.51000005,0.77400005,9.60795,0.426,-0.196,-0.156,0.077,0.959,9.759,0.061875,-0.0262625,-0.0240625,0.003273,-0.049074,-0.987905,0.147047,0
1081,-0.37005,1.1380501,9.295051,-0.414,0.17,-0.47,0.046,0.959,9.759,-0.070125,0.0792,-0.0176,0.004882,-0.048733,-0.988056,0.146098,0
1121,0.42900002,0.762,10.19295,0.398,-0.172,0.424,0.024,0.921,9.763,-0.0743875,0.13035,0.0196625,0.005445,-0.046363,-0.98797,0.147427,0
1161,-0.21900001,1.06605,9.92895,-0.193,0.162,0.163,-0.026,0.899,9.765,-0.0691625,0.1122,-0.034649998,0.00817,-0.045176,-0.987887,0.148222,0
1202,0.37605003,0.82395005,10.272,0.403,-0.068,0.503,-0.036,0.886,9.766,0.0374,0.0589875,-0.0133375,0.008596,-0.044477,-0.987814,0.148895,0
1241,-0.45405003,1.0900501,9.711,-0.368,0.177,-0.052,-0.081,0.912,9.763,0.045925,0.121825,-0.0325875,0.011297,-0.045462,-0.987736,0.148934,0
1281,0.043050002,0.83400005,10.365001,0.176,-0.09,0.602,-0.136,0.921,9.762,0.0257125,0.06435,0.025024999,0.01396,-0.045471,-0.987643,0.149321,0
1321,-0.58305,1.04205,9.61305,-0.424,0.092,-0.157,-0.161,0.946,9.759,0.0512875,0.0473,-0.0187,0.015366,-0.046555,-0.987542,0.149519,0
1361,-0.24795002,0.87000006,10.06305,-0.069,-0.106,0.335,-0.217,0.967,9.756,0.1439625,0.0441375,0.109175,0.018479,-0.047106,-0.987086,0.151985,0
1402,0.06705,1.1520001,8.646001,0.26,0.13,-1.156,-0.18,1.026,9.751,-0.023375,0.0504625,-0.0176,0.017222,-0.050329,-0.986682,0.153715,0
1441,-0.23400001,0.9990001,10.408051,0.043,0.015,0.652,-0.28,0.976,9.753,-0.107525,0.29975,0.0111375,0.022082,-0.046937,-0.986731,0.153852,0
1481,-0.14295001,1.059,9.77595,0.096,0.09,0.04,-0.282,0.988,9.752,0.1172875,-0.263725,0.0452375,0.021492,-0.047913,-0.986629,0.154287,0
1521,0.49605003,0.91095006,8.93295,0.654,-0.11,-0.831,-0.164,1.009,9.753,-0.08195,0.053625,-0.0570625,0.016272,-0.049527,-0.986697,0.153984,0
1561,-0.51405,1.00395,9.675,-0.271,0.066,-0.089,-0.231,0.927,9.759,-0.38445,0.1835625,-0.111375,0.01902,-0.044604,-0.987244,0.151647,0
1602,-0.45900002,0.66195005,10.408051,-0.164,-0.161,0.746,-0.299,0.814,9.768,-0.056375,0.039875,-0.0496375,0.021395,-0.038733,-0.987586,0.150715,0
1641,-0.05595,0.85800004,9.187051,0.188,0.015,-0.561,-0.239,0.828,9.768,0.027775,-0.1934625,-0.13805,0.018251,-0.040046,-0.987829,0.149185,0
1681,-1.098,0.89100003,9.915001,-0.848,0.075,0.131,-0.241,0.809,9.77,-0.105325,-0.064625,-0.094325,0.018285,-0.03896,-0.988285,0.146423,0
1722,0.00195,0.609,10.320001,0.188,-0.175,0.536,-0.188,0.774,9.774,-0.0435875,-0.1753125,0.058025,0.015122,-0.037678,-0.988406,0.146299,0
1761,-0.18795002,0.80805004,10.1970005,0.033,0.037,0.452,-0.171,0.752,9.776,-0.020075,0.09625,-0.0048125,0.014334,-0.036656,-0.988533,0.145778,0
1801,-0.34905002,0.822,9.86205,-0.138,0.062,0.085,-0.202,0.754,9.775,-0.01265,0.0408375,0.0708125,0.015868,-0.036572,-0.9885,0.145867,0
1841,0.24900001,0.73305005,9.831,0.447,-0.035,0.044,-0.202,0.757,9.775,0.0246125,-0.0240625,0.0484,0.015263,-0.036757,-0.988295,0.147266,0
1881,-0.05595,0.72105,9.7570505,0.109,-0.052,-0.022,-0.164,0.774,9.774,0.1067,0.0653125,-0.086899996,0.014164,-0.037944,-0.988374,0.146543,0
1922,-0.54,0.95595,9.29205,-0.312,0.135,-0.48,-0.219,0.818,9.77,0.0320375,0.011,0.0185625,0.017172,-0.039705,-0.988351,0.145909,0
1961,-0.016050002,0.846,9.984,0.21,0.033,0.213,-0.223,0.811,9.77,-0.0638,0.0941875,4.13E-04,0.017452,-0.039191,-0.988283,0.146475,0
2001,-0.58095,1.02795,10.165951,-0.312,0.222,0.39,-0.26,0.798,9.77,-0.0180125,0.0664125,-0.012375,0.019109,-0.038392,-0.988376,0.14585,0
2041,-0.15195,0.65205,9.913051,0.152,-0.167,0.133,-0.304,0.809,9.768,0.0928125,0.1601875,0.0473,0.021478,-0.038567,-0.988133,0.147117,0
2081,-0.60195005,1.0020001,9.40305,-0.299,0.19,-0.352,-0.339,0.844,9.764,-0.0094875,-0.0688875,-0.0155375,0.023484,-0.040069,-0.988005,0.147268,0
2122,-0.147,0.77895004,9.679951,0.19,-0.057,-0.124,-0.312,0.82,9.767,-0.0829125,-0.0444125,-0.0240625,0.021886,-0.038982,-0.988179,0.14664,0
2161,-0.34605002,0.71895003,9.3810005,-0.045,-0.083,-0.399,-0.295,0.792,9.77,-0.090475,-0.036849998,-0.0559625,0.020691,-0.037623,-0.98845,0.145332,0
2201,-0.36795002,0.55395,9.87705,-0.066,-0.179,0.099,-0.304,0.715,9.775,-0.21505,0.1016125,-0.0378125,0.020744,-0.033641,-0.988717,0.144483,0
2241,-0.39405003,0.56805,9.879001,-0.035,-0.06,0.081,-0.345,0.642,9.779,-0.1447875,0.0089375,0.007975,0.022199,-0.029906,-0.988776,0.144686,0
2282,0.012,0.41700003,10.300051,0.319,-0.172,0.54,-0.319,0.594,9.783,-0.006325,-0.014575,-0.0166375,0.020516,-0.027627,-0.98876,0.145493,0
2321,-0.52095,0.70905006,9.786,-0.224,0.104,-0.004,-0.292,0.604,9.783,0.0097625,-0.0592625,-0.0847,0.019157,-0.028361,-0.988912,0.144502,0
2361,-0.20205002,0.58695,10.20495,0.077,-0.039,0.404,-0.31,0.597,9.783,-0.0361625,0.0504625,0.042075,0.019884,-0.027777,-0.988909,0.144537,0
2401,-0.19800001,0.717,9.691951,0.117,0.099,-0.057,-0.307,0.61,9.782,0.077825,-0.011275,-0.011275,0.02006,-0.028524,-0.988711,0.145718,0
2442,-0.20205002,0.58695,9.769051,0.105,-0.04,-0.016,-0.296,0.626,9.782,-0.023375,0.021724999,-0.0240625,0.019651,-0.029388,-0.988627,0.146168,0
2481,-0.54,0.549,10.102051,-0.216,-0.071,0.31,-0.314,0.616,9.782,0.0576125,0.02805,-0.0389125,0.020511,-0.028836,-0.988667,0.145893,0
2521,-0.32895002,0.64995,9.40305,0.007,-0.001,-0.382,-0.319,0.642,9.78,0.047025,-0.0240625,-0.0081125,0.020913,-0.030105,-0.98866,0.145626,0
2561,-0.61005,0.55905,9.86205,-0.266,-0.08,0.08,-0.332,0.638,9.78,-0.0276375,0.0078375,0.005775,0.02158,-0.029724,-0.988715,0.145233,0
2601,-0.14295001,0.61605,9.628051,0.177,-0.027,-0.164,-0.313,0.64,9.78,0.0309375,-0.165825,0.073975,0.020439,-0.030021,-0.98862,0.145984,0
2642,-0.109050006,0.54405004,10.108951,0.146,-0.1,0.323,-0.255,0.631,9.782,-0.038225,0.0121,-0.00275,0.017596,-0.029933,-0.988636,0.14626,0
2681,-0.15,0.62595004,9.843,0.122,-0.027,0.077,-0.258,0.627,9.783,0.0416625,-0.0017875,-0.00275,0.01773,-0.029798,-0.988703,0.145815,0
2721,-0.291,0.669,9.814051,-0.023,0.032,0.024,-0.262,0.634,9.782,-0.0158125,0.1164625,-0.0485375,0.018098,-0.030065,-0.988752,0.145384,0
2761,-0.21000001,0.69495004,9.936001,0.095,0.063,0.147,-0.3,0.63,9.781,-0.0020625,0.021724999,-0.0144375,0.019827,-0.029614,-0.988769,0.145139,0
2801,-0.351,0.70905006,9.891001,-0.037,0.068,0.107,-0.302,0.639,9.781,0.0182875,0.038775,-0.0474375,0.020072,-0.030063,-0.988875,0.144285,0
2842,-0.33195,0.68100005,9.913051,0.001,0.035,0.122,-0.328,0.646,9.779,0.0171875,0.0121,-5.50E-04,0.021365,-0.030238,-0.988941,0.143607,0
2881,-0.33900002,0.726,9.56505,-0.014,0.058,-0.217,-0.311,0.664,9.779,0.0479875,-0.0155375,-0.0719125,0.020595,-0.031285,-0.989033,0.142865,0
2921,-0.47505003,0.66195005,9.835951,-0.131,-0.013,0.055,-0.332,0.666,9.778,-0.040425,0.0504625,-0.0229625,0.021615,-0.031257,-0.989198,0.141567,0
2961,-0.48705003,0.61800003,9.9199505,-0.131,-0.044,0.137,-0.343,0.658,9.778,0.0268125,-0.0603625,-0.0218625,0.022047,-0.030801,-0.98928,0.141027,0
3002,-0.57795,0.63000005,9.723001,-0.239,-0.037,-0.067,-0.333,0.663,9.778,0.0086625,-0.029424999,0.0259875,0.021565,-0.031135,-0.9893,0.14089,0
3041,-0.32205,0.717,9.55605,0.002,0.035,-0.23,-0.313,0.672,9.778,0.027775,-0.1423125,0.0771375,0.020706,-0.031714,-0.989139,0.142016,0
3081,-0.19095,0.72900003,9.783,0.08,0.052,0,-0.268,0.669,9.78,-0.0669625,0.0121,0.03355,0.01844,-0.03181,-0.989085,0.142683,0
3121,-0.22200002,0.73800004,10.18095,0.04,0.068,0.406,-0.271,0.653,9.781,-0.006325,-0.011275,0.03025,0.01849,-0.031005,-0.989052,0.143082,0
3161,-0.40095,0.78795004,9.774,-0.088,0.11,-0.014,-0.28,0.666,9.779,0.0022,0.0760375,0.0100375,0.019133,-0.031575,-0.988913,0.143831,0
3202,-0.17595,0.73095006,10.044001,0.149,0.048,0.259,-0.312,0.673,9.778,0.0757625,0.061049998,0.0259875,0.020837,-0.031749,-0.988709,0.144955,0
3241,-0.13995,0.79995006,9.34305,0.17,0.079,-0.446,-0.306,0.71,9.776,0.010725,-0.0103125,-0.0176,0.020523,-0.033788,-0.988619,0.145148,0
3281,-0.13995,0.64500004,10.233001,0.175,-0.049,0.451,-0.311,0.689,9.777,-0.056375,0.088825,-5.50E-04,0.020931,-0.032436,-0.988636,0.145286,0
3321,-0.09705,0.87900007,9.951,0.223,0.151,0.22,-0.319,0.694,9.776,0.060775,0.0345125,0.0356125,0.021326,-0.032711,-0.988515,0.14599,0
3361,0.22695,1.07805,9.514951,0.515,0.34,-0.267,-0.298,0.735,9.774,0.029975,-0.0570625,0.075075,0.020499,-0.034901,-0.988322,0.146901,0
3402,0.036000002,1.00395,9.61305,0.277,0.242,-0.172,-0.25,0.751,9.774,-0.071225,0.055825,-0.0081125,0.018327,-0.035989,-0.988284,0.147181,0
3441,-0.363,0.66195005,10.341001,-0.072,-0.068,0.561,-0.281,0.722,9.775,-0.0627,0.0408375,0.007975,0.019642,-0.034283,-0.988378,0.146789,0
3481,-0.56895,0.71400005,9.984,-0.264,-0.004,0.207,-0.294,0.712,9.776,0.0427625,0.06215,0.0697125,0.020252,-0.033806,-0.988418,0.146544,0
3521,-0.53295004,0.99705005,9.72105,-0.184,0.262,-0.061,-0.347,0.731,9.773,-0.0968,0.0334125,0.075075,0.023062,-0.034193,-0.988117,0.148065,0
3561,-1.03995,0.31005,11.02095,-0.691,-0.365,1.24,-0.343,0.664,9.778,-0.1672,-0.031625,0.0463375,0.022311,-0.030788,-0.988221,0.148234,0
3601,-0.54195005,0.76500005,10.240951,-0.132,0.115,0.451,-0.399,0.647,9.777,0.22275,0.1463,0.2039125,0.025481,-0.029934,-0.987755,0.150974,0
3642,-0.62100005,1.2070501,8.32995,-0.149,0.41,-1.402,-0.435,0.792,9.764,0.199375,-0.0358875,0.0473,0.02819,-0.036536,-0.987082,0.15342,0
3681,-0.648,0.79095006,9.654,-0.2,-0.001,-0.121,-0.44,0.787,9.765,-0.239525,0.0504625,-0.034649998,0.028407,-0.036012,-0.987092,0.153445,0
3721,-0.72,0.76905006,10.417951,-0.221,0.04,0.638,-0.498,0.714,9.767,-0.0627,0.141075,-0.0176,0.03098,-0.032018,-0.987122,0.153638,0
3761,-0.76500005,1.3630501,8.86095,-0.211,0.612,-0.909,-0.552,0.75,9.762,0.027775,0.0686125,0.0548625,0.033787,-0.033471,-0.986836,0.154569,0
3801,-0.957,1.24605,9.25605,-0.32,0.459,-0.534,-0.607,0.793,9.755,-0.0947375,0.0259875,0.0506,0.036957,-0.035068,-0.986392,0.156317,0
3842,-1.05495,1.3440001,9.13395,-0.452,0.529,-0.601,-0.607,0.804,9.754,-0.056375,-0.1232,0.0836,0.037,-0.035592,-0.9861,0.158017,0
3881,-0.684,1.215,9.460051,-0.104,0.413,-0.304,-0.573,0.795,9.757,-0.18095,-0.1551,0.1144,0.035425,-0.035401,-0.985832,0.160079,0
3921,-0.51600003,1.4089501,9.7879505,0.014,0.648,0.015,-0.516,0.75,9.764,-0.21615,-0.088,0.0452375,0.032123,-0.033337,-0.985751,0.161714,0
3961,-0.86100006,1.1740501,10.36995,-0.339,0.455,0.597,-0.512,0.724,9.766,-0.11275,-0.0262625,-0.009075,0.031841,-0.03217,-0.985718,0.162204,0
4001,-0.363,1.24605,9.807,0.125,0.486,0.04,-0.479,0.752,9.765,0.0650375,-0.13915,-0.0292875,0.030263,-0.034003,-0.985665,0.162455,0
4041,-0.588,1.0879501,9.75,-0.104,0.31,-0.08,-0.468,0.776,9.764,-0.1181125,0.0356125,-0.14973749,0.030027,-0.035152,-0.985902,0.160808,0
4081,0.043050002,0.633,11.229,0.504,-0.091,1.412,-0.465,0.715,9.769,-0.1362625,0.0675125,-0.2242625,0.029282,-0.032129,-0.986467,0.158091,0
4121,-0.74100006,0.46995002,10.971001,-0.223,-0.238,1.196,-0.511,0.701,9.768,0.1524875,0.1005125,-0.30415,0.03159,-0.031049,-0.987249,0.152894,0
4161,-0.933,0.16095,11.385,-0.407,-0.567,1.606,-0.518,0.717,9.766,0.104499996,-0.1582625,-0.23595,0.031471,-0.032412,-0.987978,0.147842,0
4202,-0.90405005,0.17595,12.09405,-0.374,-0.549,2.314,-0.524,0.713,9.766,0.1502875,0.0941875,-0.0570625,0.031893,-0.032235,-0.988283,0.14574,0
4241,-0.21000001,0.40995002,10.87005,0.319,-0.368,1.107,-0.523,0.776,9.761,0.331375,-0.078375,-0.1060125,0.032177,-0.035673,-0.98823,0.14523,0
4281,-0.64995,0.27795002,9.832951,-0.166,-0.554,0.073,-0.473,0.827,9.76,0.0160875,-0.162525,-0.2552,0.029782,-0.03837,-0.988676,0.141981,0
4321,0.10305001,-0.28800002,11.169001,0.534,-0.962,1.395,-0.438,0.676,9.773,-0.3344,0.0462,-0.2743125,0.026874,-0.030657,-0.989613,0.137855,0
4361,-0.507,-0.40500003,11.47395,-0.035,-0.902,1.686,-0.468,0.507,9.782,-0.1755875,0.124025,-0.2998875,0.027237,-0.022306,-0.990539,0.132631,0
4402,0.081,-0.31905,10.827001,0.561,-0.754,1.029,-0.479,0.441,9.784,0.1354375,-0.00605,-0.03355,0.027213,-0.019267,-0.990927,0.130199,0
4441,0.63000005,0.31005,9.204,1.049,-0.187,-0.591,-0.424,0.491,9.785,0.20253749,0.0515625,-0.0655875,0.024791,-0.022217,-0.991001,0.129645,0
4481,-0.06105,0.55095005,8.60805,0.341,0,-1.175,-0.387,0.548,9.783,0.100237496,4.13E-04,-0.16885,0.023191,-0.025241,-0.991283,0.12721,0
4521,-0.15705001,0.52005005,8.634001,0.238,-0.042,-1.161,-0.389,0.558,9.782,-0.066,0.0653125,-0.1593625,0.023267,-0.025787,-0.991635,0.12431,0
4561,-0.12795001,0.28305,9.54405,0.274,-0.216,-0.278,-0.397,0.5,9.785,-0.1203125,0.0143,-0.1560625,0.023247,-0.02287,-0.99204,0.121624,0
4602,-0.35805002,0.42195,9.160951,0.041,-0.043,-0.608,-0.368,0.466,9.788,-0.038225,-0.0358875,-0.129525,0.02144,-0.021282,-0.992428,0.119053,0
4641,-0.67905,0.57105005,9.41895,-0.264,0.1,-0.376,-0.404,0.458,9.787,0.0427625,0.0834625,-0.0207625,0.023725,-0.02102,-0.992515,0.117935,0
4681,-0.021000002,0.87195003,8.397,0.366,0.332,-1.394,-0.376,0.544,9.784,0.19085,-0.17325,0.0132,0.022191,-0.025506,-0.992408,0.118245,0
4721,-0.16905001,0.81495005,8.61705,0.173,0.206,-1.174,-0.336,0.597,9.782,-0.0435875,0.09845,-0.0911625,0.020645,-0.02824,-0.992479,0.117302,0
4761,-0.23400001,0.77895004,9,0.144,0.174,-0.791,-0.376,0.602,9.78,0.0405625,0.0323125,-0.034649998,0.022672,-0.028332,-0.992594,0.115926,0
4802,-0.24300002,0.93000007,8.644051,0.129,0.258,-1.129,-0.346,0.656,9.778,0.114125,-0.0273625,-0.0378125,0.021425,-0.031351,-0.992615,0.115203,0
4841,-0.72195005,1.107,8.646001,-0.382,0.402,-1.111,-0.364,0.73,9.772,0.0661375,-0.080575,0.0771375,0.022755,-0.035011,-0.99246,0.115233,0
4881,0.01905,1.07295,9.154051,0.312,0.293,-0.619,-0.298,0.769,9.771,-0.057475,-0.17215,0.1612875,0.019562,-0.037152,-0.992195,0.117412,0
4921,-0.08805001,1.03995,10.795951,0.146,0.294,1.011,-0.228,0.74,9.776,-0.121275,-0.088,0.1197625,0.015977,-0.035999,-0.992013,0.119828,0
4961,-0.351,1.2240001,11.316001,-0.153,0.464,1.528,-0.187,0.747,9.776,0.1087625,-0.086899996,0.17407499,0.014073,-0.036841,-0.991747,0.121991,0
5002,-0.15495001,1.42305,10.659,0.001,0.548,0.896,-0.146,0.859,9.767,0.2866875,-0.1903,0.26675,0.012813,-0.043457,-0.990984,0.126085,0
5041,-0.102000006,1.2739501,10.33605,-0.029,0.295,0.608,-0.062,0.989,9.756,0.180125,-0.1530375,0.2721125,0.009613,-0.049854,-0.990083,0.130987,0
5081,0.010050001,0.94200003,10.729051,0.034,-0.07,0.964,-0.034,1.01,9.754,-0.1084875,0.1772375,0.2189,0.008903,-0.050752,-0.989378,0.135921,0
5121,-0.59505004,0.52695,11.095051,-0.46,-0.429,1.326,-0.128,0.947,9.759,-0.003025,0.17613749,0.2189,0.013253,-0.04697,-0.989005,0.139597,0
5162,-0.06105,0.52695,10.23795,0.089,-0.406,0.466,-0.143,0.923,9.761,-0.1117875,-0.0198,0.2146375,0.013974,-0.045521,-0.988535,0.143281,0
5201,-0.030000001,0.039,11.634001,0.156,-0.732,1.818,-0.155,0.773,9.774,-0.3227125,0.14739999,0.1496,0.013699,-0.03745,-0.988434,0.146312,0
5241,0.052950002,0.19500001,10.95405,0.232,-0.475,1.168,-0.191,0.665,9.782,-0.003025,0.121825,0.1518,0.014915,-0.032107,-0.98824,0.148752,0
5281,-0.58305,0.25005,10.132951,-0.355,-0.412,0.337,-0.216,0.658,9.782,0.0587125,0.0143,0.142175,0.016004,-0.031561,-0.987956,0.150629,0
5322,-0.35295,0.24300002,9.4150505,-0.111,-0.44,-0.369,-0.228,0.675,9.78,0.1524875,-0.039049998,0.16555,0.016792,-0.032245,-0.987487,0.153446,0
5361,-0.44400004,0.19905001,9.369,-0.205,-0.501,-0.422,-0.236,0.68,9.78,0.05555,0.0259875,0.091025,0.017324,-0.032413,-0.987236,0.154961,0
5401,-0.43995002,0.18,9.132,-0.168,-0.49,-0.654,-0.268,0.668,9.78,0.0650375,0.0334125,-0.00165,0.018842,-0.031576,-0.987134,0.155607,0
5441,-0.69795,0.40095,8.86905,-0.394,-0.27,-0.912,-0.301,0.666,9.779,0.0246125,0.0567875,-0.0506,0.020518,-0.031213,-0.987229,0.154866,0
5481,-0.744,0.82395005,8.44005,-0.371,0.095,-1.333,-0.35,0.667,9.777,-0.0180125,0.020624999,-0.0133375,0.022975,-0.030832,-0.987194,0.154818,0
5521,-0.79095006,1.03005,8.73705,-0.392,0.348,-1.087,-0.385,0.657,9.776,-0.121275,0.0567875,0.0154,0.024626,-0.030096,-0.987125,0.155146,0
5562,-0.684,1.0879501,8.998051,-0.229,0.399,-0.771,-0.439,0.663,9.774,-0.0521125,0.0143,0.06545,0.027436,-0.029922,-0.986806,0.15673,0
5601,-0.89205,1.116,8.986051,-0.424,0.414,-0.754,-0.461,0.688,9.771,-0.0265375,-0.0262625,0.1027125,0.028769,-0.03097,-0.986519,0.158091,0
5641,-0.507,1.1040001,9.313951,-0.05,0.398,-0.452,-0.467,0.719,9.769,0.047025,0.0132,0.117699996,0.029431,-0.032476,-0.986198,0.159663,0
5681,-0.432,1.0830001,8.91195,0.026,0.291,-0.857,-0.448,0.784,9.764,0.1161875,-0.0848375,0.038775,0.028948,-0.035971,-0.985969,0.16041,0
5722,-0.75105006,1.03695,9.30405,-0.301,0.206,-0.458,-0.447,0.828,9.761,-0.066,0.0078375,0.0089375,0.02939,-0.038042,-0.985903,0.160257,0
5761,-0.22605,0.95100003,10.707001,0.24,0.134,0.942,-0.458,0.805,9.762,-0.0094875,0.0600875,-0.0378125,0.02979,-0.03676,-0.98576,0.161361,0
5801,-0.59505004,1.12395,9.61095,-0.128,0.26,-0.156,-0.457,0.856,9.758,0.1758625,-0.055,-0.1508375,0.03003,-0.03957,-0.985857,0.160053,0
5841,-0.61005,0.80295,10.24995,-0.136,-0.084,0.485,-0.462,0.874,9.756,-0.19167499,0.0792,-0.23705,0.0304,-0.040163,-0.986324,0.156931,0
5881,-0.40605003,0.53895,12.148951,0.191,-0.224,2.375,-0.586,0.756,9.759,-0.20019999,0.376475,-0.2072125,0.035309,-0.032921,-0.986948,0.153628,0
5922,-0.54195005,0.56595004,10.236,0.083,-0.174,0.468,-0.614,0.732,9.759,0.13213749,-0.1007875,-0.5044875,0.036489,-0.032448,-0.987848,0.147552,0
5961,-0.89205,0.393,10.48005,-0.275,-0.308,0.71,-0.61,0.69,9.763,-0.2619375,-0.0347875,-0.33825,0.035696,-0.030268,-0.989135,0.139357,0
6001,0.201,0.22095,11.884951,0.776,-0.333,2.103,-0.584,0.546,9.773,-0.2193125,-0.0859375,-0.2338875,0.033346,-0.023578,-0.989886,0.135858,0
6041,0.12900001,0.109050006,11.713051,0.583,-0.356,1.915,-0.46,0.464,9.784,-0.1266375,-0.263725,-0.247775,0.026173,-0.020318,-0.990759,0.131518,0
6081,0.049950004,-0.015000001,10.972951,0.436,-0.435,1.174,-0.395,0.421,9.789,0.179025,0.0578875,-0.1901625,0.022859,-0.019035,-0.991432,0.127189,0
6122,-0.363,-0.015000001,8.857051,0.025,-0.5,-0.933,-0.377,0.49,9.787,0.23127499,-0.1093125,-0.2679875,0.022115,-0.022707,-0.991993,0.122248,0
6161,-0.186,-0.35295,9.193951,0.183,-0.817,-0.594,-0.361,0.476,9.788,-0.0297,0.0163625,-0.1986875,0.021164,-0.021968,-0.992587,0.117644,0
6201,-0.04695,-0.28800002,9.369,0.322,-0.689,-0.434,-0.364,0.401,9.791,-0.090475,0.0323125,-0.1912625,0.020807,-0.018225,-0.993091,0.114036,0
6241,-0.58305,-0.010050001,9.924001,-0.205,-0.319,0.121,-0.373,0.308,9.794,-0.12979999,0.0185625,-0.076175,0.020703,-0.01333,-0.993504,0.111097,0
6282,-0.16695,0.50100005,9.249001,0.156,0.147,-0.437,-0.373,0.319,9.794,0.2088625,-0.080575,0.1027125,0.020668,-0.014296,-0.993394,0.111959,0
6321,-0.27,1.02795,7.8769503,0.047,0.575,-1.919,-0.302,0.448,9.791,0.1684375,-0.165825,0.0686125,0.017799,-0.021168,-0.993179,0.113267,0
6361,0.096,0.95400006,8.541,0.356,0.446,-1.25,-0.259,0.506,9.79,-0.0595375,-0.0859375,0.06545,0.01609,-0.024147,-0.993055,0.114014,0
6401,0.28995,0.71400005,9.177,0.521,0.231,-0.694,-0.194,0.486,9.792,-0.174625,-0.00385,-0.0581625,0.012081,-0.023786,-0.993185,0.113447,0
6441,-0.31500003,0.67605,9.655951,-0.121,0.178,-0.095,-0.207,0.462,9.793,0.0342375,0.0653125,-0.0144375,0.013204,-0.022328,-0.993408,0.111652,0
6482,0.048,1.1209501,8.668051,0.23,0.564,-1.126,-0.189,0.552,9.789,0.1577125,-0.061325,0.0782375,0.012732,-0.027072,-0.993246,0.112098,0
6521,-0.22395001,1.3080001,8.94795,-0.026,0.672,-0.835,-0.177,0.648,9.783,0.13213749,-0.04015,0.06655,0.012742,-0.031961,-0.992959,0.113343,0
6561,-0.030000001,1.15695,9.177,0.131,0.423,-0.597,-0.143,0.736,9.777,0.102437496,-0.0485375,0.0506,0.011536,-0.036608,-0.992723,0.114135,0
6601,-0.123,0.83205,9.60105,0.017,0.051,-0.185,-0.14,0.778,9.774,-0.003025,0.0248875,0.0622875,0.011704,-0.038663,-0.992574,0.114736,0
6641,-0.53505003,0.74295,10.320001,-0.363,-0.036,0.535,-0.167,0.771,9.774,0.014025,0.09625,0.1709125,0.013184,-0.038114,-0.99236,0.11659,0
6682,-0.19305001,0.91800004,10.165951,0.005,0.113,0.388,-0.196,0.798,9.772,0.1056,-0.03795,0.362725,0.014839,-0.039355,-0.991712,0.1214,0
6721,0.120000005,1.248,10.2310505,0.274,0.401,0.459,-0.165,0.837,9.769,-0.021175,0.0803,0.3744125,0.013942,-0.041287,-0.990859,0.127665,0
6761,0.18405001,1.2100501,10.782001,0.361,0.351,1.005,-0.184,0.847,9.768,0.0033,0.0504625,0.3125375,0.01466,-0.041979,-0.990131,0.132896,0
6801,0.028950002,0.76695,10.810051,0.149,-0.105,1.033,-0.119,0.869,9.767,0.0746625,-0.117837496,0.191125,0.012082,-0.04312,-0.989695,0.136006,0
6841,-0.15495001,0.56295,10.698001,-0.022,-0.295,0.923,-0.127,0.854,9.768,-0.1362625,0.1846625,0.159225,0.012777,-0.041973,-0.989442,0.138124,0
6881,0.16305001,-0.003,11.878051,0.315,-0.733,2.099,-0.165,0.733,9.777,-0.307725,0.037675,0.058025,0.013579,-0.035574,-0.989497,0.139446,0
6922,-0.80805004,-0.41205,12.489,-0.611,-0.979,2.688,-0.191,0.57,9.788,-0.2096875,0.2006125,-0.0081125,0.0139,-0.027231,-0.989823,0.13898,0
6961,-0.86100006,-0.17505,11.236051,-0.535,-0.663,1.448,-0.327,0.503,9.788,0.23333749,0.187825,0.2561625,0.020154,-0.023047,-0.989494,0.141291,0
7001,-0.624,0.37695003,9.168,-0.257,-0.251,-0.614,-0.353,0.627,9.78,0.4230875,-0.088,0.2539625,0.022539,-0.029029,-0.98857,0.146208,0
7041,-0.37995002,0.27105,8.72295,-0.068,-0.448,-1.044,-0.325,0.723,9.774,0.1684375,-0.029424999,0.16555,0.021943,-0.034201,-0.987923,0.149516,0
7081,-0.79095006,0.33795002,9.12195,-0.365,-0.391,-0.701,-0.387,0.718,9.772,-0.022275,0.1612875,0.056925,0.025178,-0.033219,-0.987769,0.150246,0
7122,-0.68895006,0.36,9.15795,-0.251,-0.326,-0.591,-0.452,0.685,9.772,0.0149875,0.1016125,4.13E-04,0.028212,-0.031082,-0.987843,0.149679,0
7161,-0.94200003,0.49905002,8.76795,-0.392,-0.207,-1.023,-0.534,0.684,9.768,0.0363,0.111237496,0.0015125,0.032264,-0.030484,-0.987859,0.148872,0
7201,-0.933,0.58500004,8.65305,-0.368,-0.131,-1.115,-0.585,0.69,9.764,0.012925,0.02805,0.0526625,0.03481,-0.030404,-0.987773,0.148887,0
7241,-0.363,0.609,9.096001,0.209,-0.097,-0.693,-0.589,0.682,9.765,-0.04895,-0.03795,0.111237496,0.034942,-0.029864,-0.987569,0.150313,0
7281,-0.69600004,0.86295,9.0390005,-0.119,0.184,-0.736,-0.575,0.673,9.766,0.0033,0.0504625,0.059125,0.034634,-0.029863,-0.987446,0.151188,0
7321,-0.94905007,1.08105,8.802,-0.328,0.36,-0.962,-0.611,0.715,9.761,0.028875,-0.079475,0.09955,0.036322,-0.03141,-0.987187,0.15217,0
7361,-0.39195,1.0639501,8.80395,0.195,0.313,-0.962,-0.576,0.748,9.761,-0.0308,-0.0273625,0.0814,0.034938,-0.033195,-0.986937,0.153724,0
7401,-0.54495,1.0830001,9.42195,0.048,0.308,-0.348,-0.581,0.753,9.76,-0.021175,0.0578875,-0.012375,0.035272,-0.033411,-0.986972,0.153375,0
7441,-0.46095002,1.0330501,8.95995,0.132,0.238,-0.809,-0.581,0.782,9.758,0.044825,-0.0666875,-0.0463375,0.035382,-0.035037,-0.98717,0.151704,0
7482,-0.53505003,1.0900501,9.27795,0.041,0.291,-0.481,-0.573,0.798,9.757,-0.1203125,0.0600875,-0.121,0.035097,-0.03581,-0.98741,0.150019,0
7521,-0.72,1.19295,9.537001,-0.11,0.397,-0.222,-0.597,0.787,9.756,0.0064625,-0.064625,-0.126225,0.036079,-0.035266,-0.98775,0.147657,0
7561,-0.633,1.3099501,9.14595,-0.066,0.484,-0.616,-0.56,0.823,9.755,-0.0532125,-0.081675,-0.16885,0.034305,-0.037422,-0.988245,0.144196,0
7601,-0.36795002,1.167,10.437,0.183,0.351,0.675,-0.551,0.805,9.757,-0.138325,-0.064625,-0.1827375,0.03353,-0.036497,-0.988832,0.14055,0
7641,-0.52995,0.88395005,11.359051,-0.028,0.108,1.581,-0.486,0.76,9.764,-0.1288375,-0.17435,-0.34045,0.029699,-0.034985,-0.989757,0.135181,0
7681,-1.0690501,0.49905002,13.044001,-0.602,-0.199,3.263,-0.459,0.689,9.771,-0.107525,-0.039049998,-0.30415,0.027745,-0.031773,-0.990833,0.128337,0
7722,-0.837,0.609,11.58405,-0.369,-0.109,1.807,-0.461,0.709,9.77,0.22495,-0.0848375,-0.13475,0.027778,-0.033218,-0.991386,0.123601,0
7761,-0.46605003,0.69495004,10.815001,-0.04,-0.075,1.047,-0.419,0.772,9.767,0.1439625,-0.1860375,-0.07095,0.026038,-0.036525,-0.991543,0.121776,0
7801,0.025950002,0.81000006,9.51,0.329,-0.003,-0.261,-0.31,0.806,9.768,0.0075625,-0.2701875,-0.128425,0.020671,-0.038978,-0.991819,0.119784,0
7841,-0.009000001,0.36,10.48995,0.241,-0.35,0.709,-0.24,0.694,9.779,-0.458975,-0.00495,-0.2552,0.016263,-0.033318,-0.992631,0.115359,0
7881,0.41205,-0.01695,11.80395,0.638,-0.502,1.99,-0.231,0.496,9.791,-0.3471875,0.0419375,-0.2743125,0.014517,-0.023509,-0.993553,0.109949,0
7922,0.060000002,-0.075,11.409,0.308,-0.461,1.672,-0.242,0.393,9.795,0.0055,0.0749375,-0.2572625,0.014387,-0.018664,-0.994236,0.104581,0
7961,0.00705,0.049050003,9.628051,0.247,-0.387,-0.233,-0.22,0.428,9.794,0.2292125,-0.095425,-0.1742125,0.013302,-0.02085,-0.994626,0.100528,0
8001,-0.076050006,0.20205002,8.991,0.177,-0.28,-0.79,-0.202,0.466,9.793,0.1280125,0.0814,-0.126225,0.012697,-0.022753,-0.994859,0.097856,0
8041,0.034050003,0.492,8.514,0.236,-0.035,-1.277,-0.209,0.525,9.79,0.22165,-0.0411125,-0.095425,0.013187,-0.025891,-0.994973,0.095826,0
8082,-0.31695002,0.52695,8.1,-0.076,-0.069,-1.724,-0.182,0.588,9.787,0.064075,-0.0251625,-0.111375,0.012059,-0.02902,-0.995109,0.093641,0
8121,-0.36795002,0.68595004,8.890051,-0.175,0.033,-0.864,-0.205,0.608,9.785,0.1332375,-0.0411125,0.0174625,0.013272,-0.030067,-0.995166,0.092539,0
8161,-0.21705002,1.0710001,7.8460503,-0.038,0.364,-1.935,-0.166,0.697,9.78,0.1397,-0.1189375,0.0196625,0.011839,-0.035641,-0.995036,0.092151,0
8201,-0.73605,1.11405,9.20895,-0.551,0.351,-0.568,-0.184,0.751,9.776,-0.01485,-0.0103125,0.108075,0.012866,-0.037308,-0.994986,0.091893,0
8241,1.0819501,1.4800501,9.316051,1.107,0.658,-0.414,-0.124,0.815,9.771,0.130075,-0.115775,0.17407499,0.010166,-0.040952,-0.994556,0.095277,0
8282,0.69000006,1.437,9.225,0.685,0.516,-0.543,-0.004,0.913,9.764,0.102437496,-0.028324999,-0.180675,0.004642,-0.046484,-0.994448,0.094289,0
8321,-0.35595003,1.2,9.541051,-0.313,0.235,-0.224,-0.04,0.963,9.759,0.0746625,0.1750375,-0.14973749,0.006636,-0.048848,-0.994775,0.089397,0
8361,-0.31305,1.3219501,9.43395,-0.194,0.289,-0.326,-0.105,1.031,9.751,0.1524875,-0.0166375,-0.042075,0.009969,-0.052177,-0.994783,0.08709,0
8401,-0.123,1.45905,9.1060505,-0.023,0.336,-0.643,-0.098,1.12,9.741,0.1610125,-0.03795,0.073975,0.009982,-0.056722,-0.994537,0.087055,0
8441,0.112950005,1.4470501,9.703951,0.187,0.269,-0.038,-0.078,1.173,9.735,-0.0350625,0.02805,0.1016125,0.009288,-0.059336,-0.99429,0.088196,0
8481,-0.052050002,1.284,10.09395,0.046,0.107,0.356,-0.087,1.172,9.735,0.029975,0.055825,0.0697125,0.009818,-0.059292,-0.994218,0.088983,0
8522,-0.61395,1.1550001,10.34805,-0.507,-0.038,0.603,-0.105,1.182,9.734,-0.0319,0.0419375,0.193325,0.011387,-0.059442,-0.994132,0.089652,0
8561,-0.10695001,1.4440501,10.650001,0.069,0.259,0.904,-0.166,1.186,9.733,0.0820875,0.1197625,0.3040125,0.014286,-0.059591,-0.993623,0.09464,0
8601,0.097950004,1.296,9.441,0.214,0.045,-0.287,-0.115,1.249,9.725,0.094875,-0.1678875,0.1357125,0.011995,-0.063059,-0.993107,0.09807,0
8641,-0.37500003,0.65205,10.530001,-0.249,-0.548,0.794,-0.123,1.183,9.734,-0.2971375,0.27307498,0.1027125,0.012472,-0.05919,-0.99327,0.098769,0
8681,-0.528,0.312,11.149951,-0.334,-0.751,1.434,-0.21,1.048,9.748,-0.1373625,0.0323125,0.190025,0.016114,-0.0522,-0.993409,0.100763,0
8722,-0.078,0.09900001,11.050051,0.117,-0.821,1.258,-0.184,0.924,9.761,-0.207625,4.13E-04,0.1942875,0.014284,-0.045926,-0.993391,0.104213,0
8761,-0.11895001,0.132,11.62695,0.124,-0.679,1.847,-0.236,0.799,9.771,-0.12979999,0.2167,0.2391125,0.016599,-0.039115,-0.993235,0.108059,0
8801,0.10305001,0.52695,10.126051,0.344,-0.258,0.347,-0.249,0.777,9.772,0.104499996,0.0567875,0.0930875,0.017139,-0.038121,-0.992938,0.111024,0
8841,-0.37695003,0.43395,9.72105,-0.095,-0.352,-0.06,-0.272,0.775,9.772,-0.090475,0.0760375,0.0207625,0.01826,-0.037667,-0.992935,0.111022,0
8882,-0.48495004,0.19695,10.51605,-0.187,-0.523,0.752,-0.322,0.684,9.777,-0.107525,0.1420375,0.0473,0.020329,-0.032685,-0.993123,0.110559,0
8921,-0.51600003,0.52305,9.37905,-0.145,-0.153,-0.406,-0.358,0.671,9.777,0.1280125,0.004675,0.0367125,0.021978,-0.032015,-0.993139,0.110302,0
8961,-1.27695,0.80295,8.457001,-0.87,0.07,-1.327,-0.395,0.718,9.772,0.027775,0.0100375,0.0441375,0.024091,-0.034259,-0.993116,0.109389,0
9001,-1.0210501,0.71205,8.907001,-0.564,0,-0.876,-0.456,0.707,9.77,-0.071225,-0.0273625,0.1186625,0.027114,-0.033245,-0.992951,0.110482,0
9041,-0.81795,0.96105003,8.766001,-0.362,0.252,-1.013,-0.454,0.7,9.771,-0.08195,-0.0911625,0.06435,0.027605,-0.033275,-0.99282,0.111524,0
9082,-0.75105006,0.86700004,9.534,-0.276,0.184,-0.237,-0.472,0.673,9.772,-0.1926375,0.015262499,0.0132,0.027821,-0.031293,-0.992853,0.111755,0
9121,-0.76305,0.87495005,9.967951,-0.264,0.241,0.182,-0.497,0.63,9.773,-0.0265375,0.002475,0.0185625,0.028847,-0.029099,-0.992881,0.111835,0
9161,-0.64995,1.2390001,8.742001,-0.139,0.549,-1.012,-0.5,0.675,9.77,0.0385,-0.013475,0.039875,0.029222,-0.031493,-0.992734,0.112395,0
9201,-0.52095,1.164,9.09795,0.007,0.446,-0.668,-0.525,0.711,9.766,-0.0361625,0.0675125,0.06435,0.03079,-0.032982,-0.992551,0.113162,0
9241,-0.66,1.3609501,8.88105,-0.111,0.568,-0.88,-0.542,0.783,9.76,0.1194875,-0.028324999,0.0686125,0.032055,-0.036724,-0.99229,0.113947,0
9282,-0.27195,1.4610001,8.490001,0.238,0.575,-1.268,-0.51,0.881,9.753,0.1013375,-0.0581625,0.0356125,0.030963,-0.041935,-0.992055,0.114494,0
9321,-0.15705001,1.2220501,9.382951,0.346,0.294,-0.38,-0.495,0.918,9.75,-0.0829125,0.0771375,-0.096525,0.030557,-0.043601,-0.992107,0.113526,0
9361,-0.079950005,0.98205006,10.741051,0.447,0.087,0.98,-0.517,0.892,9.752,-0.0254375,0.1144,-0.20295,0.031314,-0.042376,-0.992487,0.110415,0
9401,-0.31005,1.00605,11.710951,0.247,0.081,1.951,-0.544,0.914,9.748,0.2057,0.1698125,-0.3840375,0.032769,-0.043654,-0.992957,0.105146,0
9441,-0.957,1.1359501,10.57995,-0.358,0.079,0.932,-0.608,1.046,9.731,0.4890875,-0.0422125,-0.3169375,0.036232,-0.0501,-0.993144,0.099198,0
9482,-0.55200005,0.87900007,9.798,0.031,-0.271,0.034,-0.574,1.187,9.717,0.22275,-0.1445125,-0.3691875,0.034745,-0.057925,-0.993478,0.091862,0
9521,-0.49005002,0.76500005,10.84395,0.121,-0.411,1.124,-0.598,1.174,9.717,-0.01375,0.19965,-0.3234,0.035786,-0.057131,-0.994101,0.08495,0
9561,-0.53295004,0.66195005,10.57995,0.096,-0.48,0.904,-0.638,1.133,9.72,-0.0286,-0.1860375,-0.2402125,0.036588,-0.054449,-0.994739,0.078679,0
9601,0.33,0.21900001,10.81995,0.824,-0.803,1.018,-0.478,1.013,9.742,-0.274725,-0.1892,-0.2765125,0.027943,-0.049569,-0.995716,0.072873,0
9641,-0.36495003,0.33795002,11.004001,0.124,-0.533,1.234,-0.478,0.86,9.757,-0.2193125,0.113299996,-0.2935625,0.02737,-0.041988,-0.996562,0.06596,0
9682,-0.39900002,0.23295002,10.30305,0.078,-0.533,0.531,-0.473,0.765,9.765,-0.121275,-0.1007875,-0.2765125,0.026443,-0.037569,-0.997186,0.059239,0
9721,-0.684,0.03195,9.96,-0.216,-0.664,0.144,-0.464,0.691,9.771,-0.056375,-0.022,-0.21367499,0.025502,-0.033963,-0.997736,0.052131,0
9761,-0.22605,-0.039,9.498,0.24,-0.651,-0.295,-0.451,0.619,9.776,-0.0169125,-0.0655875,-0.161425,0.024397,-0.030349,-0.998117,0.047383,0
9801,-0.19500001,-0.135,9.8220005,0.227,-0.676,-0.002,-0.419,0.551,9.782,-0.087175,0.03025,-0.1753125,0.022594,-0.027117,-0.998464,0.042693,0
9841,-0.27705002,0.19905001,9.934051,0.168,-0.304,0.145,-0.441,0.495,9.784,0.0160875,0.036575,-0.094325,0.023508,-0.024394,-0.998684,0.038497,0
9882,-0.279,0.58005005,9.217951,0.153,0.06,-0.576,-0.425,0.511,9.784,0.0715,-0.0325875,-0.0496375,0.022615,-0.025375,-0.99878,0.035797,0
9921,-0.34905002,0.94905007,8.854051,0.076,0.379,-0.928,-0.417,0.56,9.781,0.130075,-0.0325875,0.0356125,0.022253,-0.027836,-0.998765,0.0346,0
9961,0.04605,1.11195,8.742001,0.401,0.447,-1.047,-0.36,0.655,9.778,0.0650375,-0.098725,0.0782375,0.019458,-0.032874,-0.998665,0.034765,0
10001,0.08400001,1.179,8.866051,0.382,0.452,-0.922,-0.299,0.72,9.775,0.0757625,-0.064625,0.004675,0.016539,-0.036222,-0.998627,0.034017,0
10041,-0.00405,1.107,9.312,0.277,0.332,-0.469,-0.277,0.77,9.772,0.0565125,0.0174625,-0.028324999,0.015458,-0.038897,-0.998607,0.032109,0
10082,-0.25800002,1.2030001,8.988001,0.028,0.367,-0.791,-0.273,0.831,9.767,0.1428625,0.0132,-0.0815375,0.015359,-0.042943,-0.998526,0.029419,0
10121,-0.384,1.35105,8.976001,-0.081,0.426,-0.782,-0.301,0.925,9.758,0.0917125,0.0856625,-0.0229625,0.016653,-0.046811,-0.998415,0.026398,0
10161,-0.40095,1.53795,8.931001,-0.059,0.517,-0.827,-0.335,1.011,9.748,0.1747625,0.015262499,0.0185625,0.0184,-0.051206,-0.998209,0.024841,0
10201,-0.30105,1.6650001,8.569051,0.018,0.549,-1.157,-0.318,1.112,9.738,0.054449998,-0.0539,0.022824999,0.017626,-0.056403,-0.997963,0.024027,0
10242,-0.25500003,1.5280501,9.835951,0.074,0.411,-0.011,-0.32,1.125,9.736,-0.14685,0.0334125,0.0836,0.017755,-0.056909,-0.997931,0.024053,0
10281,-0.36795002,1.49205,10.626,-0.044,0.383,0.884,-0.323,1.101,9.739,-0.0297,-0.012375,0.1783375,0.017897,-0.056175,-0.99794,0.025263,0
10321,-0.46095002,1.6810501,10.255051,-0.164,0.515,0.508,-0.282,1.162,9.733,0.1332375,-0.0911625,0.2402125,0.016007,-0.059116,-0.997729,0.028011,0
10361,-0.29805002,1.9159501,10.255051,-0.017,0.663,0.518,-0.267,1.245,9.723,0.0928125,-0.0231,0.33605,0.015637,-0.063261,-0.997366,0.031826,0
10402,0.12495001,1.5619501,10.552051,0.322,0.282,0.795,-0.21,1.282,9.72,-0.08085,-0.1093125,0.2231625,0.012936,-0.065046,-0.997178,0.035175,0
10441,-0.45600003,0.84795004,11.50905,-0.259,-0.366,1.779,-0.19,1.21,9.729,-0.206525,0.1665125,0.117699996,0.012611,-0.060309,-0.997435,0.036404,0
10481,-0.68100005,0.68100005,10.968,-0.43,-0.43,1.278,-0.264,1.108,9.74,-0.093637496,-0.0444125,0.2369125,0.015578,-0.055971,-0.997589,0.037943,0
10521,-0.147,0.59205,11.181001,0.113,-0.443,1.419,-0.236,1.025,9.75,-0.1991,0.0493625,0.258225,0.014235,-0.051634,-0.997718,0.0411,0
10561,-0.49695003,0.22305001,11.269951,-0.23,-0.709,1.504,-0.259,0.927,9.759,-0.070125,0.0834625,0.2539625,0.015407,-0.046641,-0.997809,0.04431,0
10601,-0.064050004,0.075,10.545,0.23,-0.815,0.779,-0.285,0.883,9.762,0.0661375,0.0451,0.2167,0.016755,-0.044427,-0.997707,0.048221,0
10642,-0.90195006,-0.094050005,9.678,-0.591,-0.933,-0.094,-0.307,0.851,9.764,0.1599125,0.0100375,0.0878625,0.017922,-0.042672,-0.997705,0.049414,0
10681,-0.61200005,-0.13695,8.838,-0.27,-1,-0.924,-0.343,0.853,9.763,0.181225,0.0493625,0.1560625,0.019764,-0.042797,-0.997579,0.051117,0
10721,-0.77205,0.28995,8.0119505,-0.369,-0.583,-1.751,-0.393,0.869,9.76,0.081125,0.0600875,0.075075,0.022458,-0.04333,-0.997425,0.052536,0
10761,-0.82695,0.216,9.193951,-0.367,-0.581,-0.571,-0.45,0.785,9.764,-0.377025,0.1122,0.0452375,0.02514,-0.038454,-0.997551,0.052733,0
10802,-0.95400006,0.46305,10.438951,-0.411,-0.165,0.661,-0.541,0.628,9.771,-0.157575,0.2508,0.0867625,0.030349,-0.029995,-0.99765,0.053593,0
10841,-0.906,1.00905,9.273001,-0.285,0.369,-0.504,-0.612,0.639,9.766,0.0661375,-0.0603625,0.125125,0.032955,-0.030951,-0.997446,0.055279,0
10881,-0.76005006,1.08105,9.14595,-0.138,0.395,-0.624,-0.61,0.68,9.763,-0.0361625,0.0408375,0.13255,0.033124,-0.03287,-0.997254,0.057502,0
10921,-0.63795,1.08105,9.457951,0.014,0.377,-0.308,-0.64,0.698,9.76,0.010725,0.0174625,0.141075,0.034822,-0.033652,-0.997005,0.060299,0
10961,-0.67695004,1.1380501,8.727,-0.048,0.371,-1.04,-0.617,0.76,9.757,0.12265,-0.047575,0.055825,0.033898,-0.036804,-0.996803,0.062289,0
11002,-0.75105006,1.03005,8.80395,-0.188,0.22,-0.994,-0.628,0.815,9.752,0.0086625,0.0121,0.075075,0.035025,-0.040016,-0.99663,0.06244,0
11041,-0.46095002,1.116,9.25395,0.194,0.271,-0.5,-0.644,0.845,9.748,0.010725,0.038775,0.0441375,0.035616,-0.041026,-0.996543,0.06285,0
11081,-0.56595004,1.248,8.983951,0.077,0.347,-0.769,-0.635,0.894,9.745,0.1417625,-0.028324999,-0.009075,0.035248,-0.043685,-0.996452,0.062706,0
11122,-0.62595004,1.296,8.91705,0,0.325,-0.885,-0.626,0.969,9.738,0.0683375,-0.0422125,-0.010175,0.034994,-0.047426,-0.996337,0.061956,0
11161,-0.75795,1.4440501,9.25605,-0.118,0.439,-0.486,-0.635,1.016,9.733,-0.0339625,0.015262499,-0.0858,0.035623,-0.049883,-0.996247,0.0611,0
11201,-0.83205,1.45905,10.245001,-0.158,0.423,0.51,-0.644,1.02,9.732,-0.0180125,-0.04015,-0.129525,0.035984,-0.05006,-0.996331,0.059347,0
11241,-0.76005006,1.3939501,10.240951,-0.11,0.36,0.456,-0.623,1.042,9.731,0.0055,-0.0933625,-0.17215,0.034716,-0.051373,-0.996487,0.056286,0
11281,-0.88695,1.23405,11.19795,-0.239,0.196,1.409,-0.633,1.027,9.732,-0.095699996,0.0515625,-0.144375,0.035175,-0.050581,-0.996677,0.053281,0
11321,-0.78405005,1.2030001,11.089951,-0.159,0.148,1.339,-0.616,1.023,9.733,0.0672375,-0.267025,-0.10285,0.034125,-0.050597,-0.996843,0.050783,0
11361,-0.39600003,0.95400006,10.78905,0.113,-0.075,1.048,-0.508,1.028,9.739,-0.0180125,-0.132825,-0.0889625,0.028479,-0.051226,-0.997132,0.047877,0
11401,-0.16695,0.83895004,10.992001,0.32,-0.152,1.246,-0.483,0.983,9.745,-0.1511125,-0.0592625,-0.1167375,0.026901,-0.048889,-0.997404,0.045492,0
11441,-0.15705001,0.669,11.253,0.283,-0.229,1.494,-0.433,0.896,9.755,-0.158675,-0.045375,-0.197725,0.024009,-0.044659,-0.997828,0.042034,0
11482,-0.123,0.52695,10.73595,0.28,-0.303,0.968,-0.403,0.821,9.763,-0.1672,-0.0859375,-0.23595,0.022084,-0.040952,-0.998206,0.03767,0
11521,-0.109050006,0.03705,11.12895,0.274,-0.66,1.352,-0.383,0.687,9.774,-0.240625,0.14739999,-0.2882,0.020826,-0.034109,-0.998677,0.032353,0
11561,-0.492,-0.216,11.101951,-0.043,-0.789,1.321,-0.447,0.584,9.778,0.0309375,0.087725,-0.18493749,0.023732,-0.029215,-0.998907,0.027711,0
11601,0.28305,-0.05595,9.45495,0.683,-0.657,-0.326,-0.411,0.603,9.779,0.2440625,-0.1456125,-0.0570625,0.021633,-0.030468,-0.99897,0.025713,0
11641,0.33,0.22605,8.731951,0.658,-0.41,-1.05,-0.331,0.628,9.78,0.045925,0.0664125,-0.112475,0.017735,-0.031675,-0.999058,0.023759,0
11682,-0.32205,0.642,9.189,0.04,0.011,-0.599,-0.353,0.628,9.78,0.102437496,0.0600875,-0.111375,0.018817,-0.031833,-0.999094,0.021035,0
11721,-0.27705002,0.84105,8.44695,0.038,0.118,-1.331,-0.306,0.716,9.775,0.23333749,-0.2382875,-0.076175,0.01608,-0.036505,-0.999029,0.018676,0
11761,-0.009000001,1.04205,8.18595,0.23,0.235,-1.585,-0.228,0.8,9.771,0.05555,-0.080575,-0.060225,0.012361,-0.040663,-0.998958,0.016621,0
11801,-0.10695001,0.95595,9.07905,0.124,0.142,-0.699,-0.219,0.809,9.77,-0.0435875,-0.0092125,-0.062425,0.011815,-0.041147,-0.998976,0.014597,0
11841,0.04095,0.86295,9.142051,0.231,0.039,-0.631,-0.19,0.819,9.77,0.081125,-0.022,-0.07095,0.010281,-0.041694,-0.998992,0.013028,0
11881,-0.384,1.18605,8.541,-0.197,0.283,-1.251,-0.197,0.891,9.764,0.1034,-0.045375,-0.0070125,0.010542,-0.045468,-0.998844,0.011419,0
11921,0.15300001,1.3420501,8.658,0.312,0.386,-1.11,-0.162,0.948,9.759,0.02145,-0.011275,0.0111375,0.008845,-0.048312,-0.99873,0.011187,0
11961,-0.16395001,1.4970001,8.96205,0.01,0.518,-0.78,-0.16,0.98,9.756,-0.047849998,-0.028324999,-0.0070125,0.008672,-0.049952,-0.998663,0.010006,0
12001,-0.40095,1.55505,9.09795,-0.243,0.54,-0.642,-0.15,0.998,9.754,-0.0413875,-0.0539,0.021724999,0.008055,-0.05085,-0.998638,0.008421,0
12042,-0.18300001,1.626,9.675,-0.038,0.614,-0.137,-0.139,1.02,9.752,-0.141625,-0.0251625,0.075075,0.00752,-0.051988,-0.998585,0.008188,0
12081,-0.034950003,1.6980001,10.33905,0.109,0.668,0.585,-0.136,1.02,9.752,-0.0180125,-0.036849998,0.126225,0.007384,-0.052044,-0.998575,0.009183,0
12121,0.25395,1.6789501,10.13805,0.355,0.604,0.399,-0.081,1.071,9.747,0.0598125,-0.0518375,0.092125,0.004681,-0.054741,-0.998435,0.010415,0
12161,-0.26505002,1.53495,10.284,-0.156,0.438,0.499,-0.091,1.114,9.742,0.0182875,0.120725,0.1049125,0.005405,-0.056866,-0.998303,0.011243,0
12201,0.010050001,1.2889501,10.85295,0.119,0.128,1.103,-0.119,1.151,9.738,0.2110625,0.036575,0.227425,0.006722,-0.058932,-0.998147,0.013571,0
12242,0.31395,1.296,9.68295,0.398,0.049,-0.056,-0.085,1.244,9.726,0.1727,-0.00275,0.20185,0.005392,-0.063652,-0.997819,0.016594,0
12281,0.393,0.83400005,10.90095,0.457,-0.41,1.114,-0.048,1.24,9.727,-0.0680625,0.019524999,0.10065,0.00367,-0.063253,-0.997822,0.018318,0
12321,-0.08805001,0.72105,11.493001,-0.017,-0.448,1.745,-0.064,1.17,9.736,-0.12773749,0.1676125,0.0515625,0.004585,-0.059562,-0.998036,0.018852,0
12361,-0.351,0.76695,11.239051,-0.198,-0.349,1.494,-0.141,1.112,9.742,0.08635,0.1783375,0.18259999,0.008572,-0.056741,-0.998139,0.020593,0
12401,0.057000004,1.03995,9.68505,0.212,-0.104,-0.054,-0.157,1.139,9.738,0.060775,0.0078375,0.1720125,0.009404,-0.058042,-0.997982,0.023944,0
12441,0.00495,0.59205,9.77595,0.139,-0.503,0.02,-0.139,1.084,9.745,-0.2619375,0.036575,0.0154,0.0085,-0.055164,-0.998136,0.024672,0
12482,-0.68100005,0.13995,10.98495,-0.482,-0.772,1.215,-0.198,0.908,9.762,-0.3642375,0.2145,-0.034649998,0.011423,-0.045758,-0.998614,0.023324,0
12521,-1.00695,0.135,10.267051,-0.701,-0.66,0.485,-0.292,0.782,9.77,-0.0510125,0.0493625,0.03025,0.015947,-0.039498,-0.998826,0.023042,0
12561,-1.09305,0.010050001,9.10095,-0.74,-0.735,-0.674,-0.349,0.735,9.772,-0.0308,0.1420375,0.023924999,0.019989,-0.036047,-0.998884,0.023023,0
12601,-1.47405,0.12495001,9.06,-0.967,-0.527,-0.714,-0.505,0.647,9.772,-0.123475,0.1164625,0.0856625,0.026555,-0.032437,-0.998852,0.023149,0
12641,-0.88005006,0.04095,9.57705,-0.31,-0.53,-0.198,-0.561,0.569,9.773,-0.095699996,0.06215,0.139975,0.029413,-0.028296,-0.998833,0.025823,0
12682,-0.97800004,0.30705002,9.22095,-0.368,-0.246,-0.552,-0.613,0.532,9.772,-9.63E-04,0.0845625,0.142175,0.032162,-0.026267,-0.99872,0.028873,0
12721,-1.2540001,0.58005005,9.108001,-0.585,0.036,-0.67,-0.669,0.536,9.769,0.0331375,0.0749375,0.1496,0.036036,-0.026499,-0.998506,0.031378,0
12761,-0.95895004,0.762,8.809051,-0.203,0.187,-0.938,-0.708,0.575,9.764,0.010725,-0.0677875,0.2380125,0.03719,-0.028096,-0.998295,0.035112,0
12801,-0.57600003,0.76905006,9.264001,0.138,0.157,-0.516,-0.697,0.577,9.764,-0.0595375,0.0771375,0.23265,0.036784,-0.028008,-0.998101,0.040697,0
12841,-0.59805006,0.90105003,9.43095,0.112,0.31,-0.338,-0.698,0.588,9.764,-0.0286,-0.095425,0.23375,0.036979,-0.028361,-0.997858,0.045887,0
12882,-0.109050006,0.822,9.7879505,0.54,0.209,0.013,-0.649,0.608,9.766,0.0587125,0.0132,0.2231625,0.034675,-0.02939,-0.99767,0.050863,0
12921,-0.39600003,1.1719501,9.022051,0.237,0.486,-0.745,-0.626,0.704,9.761,0.2003375,0.002475,0.1166,0.033844,-0.034466,-0.997388,0.053692,0
12961,-0.22395001,1.33395,8.59305,0.369,0.52,-1.174,-0.587,0.814,9.755,0.0991375,-0.0570625,0.025024999,0.032149,-0.03997,-0.997194,0.054519,0
13001,-0.504,1.30305,9.12195,0.075,0.442,-0.64,-0.579,0.851,9.752,-0.0840125,0.1027125,-0.1082125,0.031873,-0.041818,-0.99719,0.053352,0
13041,-0.78195006,1.21695,9.68505,-0.155,0.366,-0.066,-0.62,0.845,9.75,-0.038225,-0.00275,-0.1082125,0.033836,-0.041481,-0.997274,0.050768,0
13082,-0.51900005,1.128,9.73305,0.092,0.265,-0.024,-0.609,0.864,9.749,-0.0191125,-0.0518375,-0.1071125,0.033086,-0.042872,-0.99734,0.048771,0
13121,-0.55005,1.011,10.741051,0.046,0.147,0.981,-0.591,0.86,9.75,-0.0083875,-0.011275,-0.143275,0.032214,-0.042472,-0.997509,0.046178,0
13161,-0.58995,1.2529501,10.37895,-0.005,0.355,0.63,-0.58,0.897,9.748,0.1684375,-0.078375,-0.197725,0.031556,-0.044675,-0.997563,0.043294,0
13201,-0.744,1.2070501,9.55305,-0.177,0.236,-0.195,-0.558,0.962,9.743,0.012925,-0.079475,-0.297825,0.030373,-0.047972,-0.997617,0.039184,0
13241,-1.1359501,0.59505004,10.750051,-0.553,-0.321,0.998,-0.577,0.907,9.747,-0.1777875,0.12925,-0.2946625,0.031179,-0.04511,-0.99792,0.033888,0
13282,-1.47105,0.693,10.41495,-0.785,-0.172,0.66,-0.687,0.855,9.745,0.111925,-0.0209,-0.0815375,0.0364,-0.042578,-0.997969,0.030319,0
13321,-0.56595004,0.975,10.07295,0.081,0.052,0.322,-0.635,0.917,9.742,0.15455,-0.2179375,-0.0070125,0.033645,-0.046024,-0.997927,0.029836,0
13361,-0.78705,1.03005,10.2960005,-0.189,0.059,0.541,-0.585,0.963,9.741,0.08635,-0.061325,-0.10285,0.031274,-0.048416,-0.997921,0.028832,0
13401,-0.20505,1.0159501,10.798051,0.377,0.067,1.043,-0.581,0.934,9.744,-0.2641375,-0.0507375,-0.1997875,0.030951,-0.046925,-0.998059,0.026792,0
13441,-0.23595001,0.049050003,13.116,0.269,-0.715,3.351,-0.501,0.756,9.764,-0.5154875,-0.164725,-0.4246,0.025811,-0.036509,-0.998787,0.020625,0
13482,-1.00695,-0.43605003,13.377001,-0.492,-1.015,3.598,-0.502,0.579,9.776,-0.107525,0.1676125,-0.1551,0.026064,-0.029203,-0.999123,0.01484,0
13521,-0.31500003,-0.00795,10.387051,0.218,-0.665,0.609,-0.53,0.675,9.768,0.4987125,-0.0763125,0.088825,0.027531,-0.034544,-0.998903,0.015485,0
13561,0.39705002,0.29295,8.3560505,0.867,-0.583,-1.407,-0.468,0.878,9.756,0.467775,-0.1945625,0.0515625,0.024488,-0.044872,-0.998553,0.016673,0
13601,0.47205,0.41700003,8.715,0.945,-0.562,-1.113,-0.428,0.971,9.748,0.0512875,0.0174625,-0.1093125,0.022689,-0.049327,-0.998411,0.015057,0
13641,-0.44895002,0.68805003,8.86095,0.041,-0.336,-0.824,-0.464,0.992,9.745,0.131175,0.0345125,-0.1093125,0.024376,-0.050365,-0.998352,0.012714,0
13681,-0.70500004,0.94200003,8.778001,-0.241,-0.117,-0.914,-0.452,1.043,9.74,0.1067,-0.0859375,0.0174625,0.023677,-0.053131,-0.998237,0.011741,0
13721,-0.73200005,1.15695,8.73705,-0.284,0.045,-0.962,-0.448,1.102,9.734,0.2014375,-0.097625,0.1731125,0.023605,-0.056189,-0.998042,0.014012,0
13761,-0.33900002,1.365,8.47395,0.065,0.171,-1.254,-0.392,1.19,9.726,0.08965,-0.114675,0.21779999,0.021005,-0.060557,-0.997782,0.017952,0
13801,-0.22605,1.3300501,9.526951,0.155,0.106,-0.203,-0.373,1.214,9.723,-0.021175,0.0473,0.2231625,0.020432,-0.061652,-0.997654,0.021619,0
13842,-0.62595004,1.3630501,9.690001,-0.254,0.121,-0.036,-0.372,1.24,9.72,0.098175,-0.0336875,0.26785,0.020563,-0.062981,-0.997478,0.025443,0
13881,0.052950002,1.5139501,9.699,0.374,0.211,-0.016,-0.347,1.303,9.713,0.164175,0.0493625,0.3542,0.019879,-0.0662,-0.997107,0.031601,0
13921,-0.27195,1.66005,9.028951,0.051,0.244,-0.683,-0.323,1.403,9.7,0.2440625,-0.0070125,0.385,0.01925,-0.071331,-0.996533,0.038247,0
13961,0.21105,1.7770501,8.557051,0.49,0.256,-1.131,-0.286,1.514,9.684,0.131175,0.0356125,0.47245,0.017605,-0.077491,-0.995727,0.047033,0
14001,-0.27405003,1.9590001,8.553,-0.002,0.346,-1.131,-0.27,1.601,9.671,0.08635,0.09735,0.461725,0.018433,-0.081123,-0.994958,0.056008,0
14042,-0.492,1.914,8.668051,-0.217,0.258,-1,-0.272,1.648,9.663,-0.0829125,0.0760375,0.5086125,0.019407,-0.083207,-0.994217,0.065045,0
14081,-0.73905003,1.746,9.673051,-0.433,0.107,0.005,-0.302,1.636,9.664,-0.01485,0.1282875,0.6076125,0.021819,-0.082307,-0.99348,0.075798,0
14121,-1.1359501,1.8709501,8.577001,-0.788,0.196,-1.09,-0.341,1.669,9.657,-0.0020625,0.1155,0.77275,0.025088,-0.083545,-0.992137,0.08974,0
14161,-1.014,1.7050501,9.73995,-0.594,0.044,0.081,-0.413,1.657,9.656,-0.2118875,0.2091375,0.9827125,0.030257,-0.081908,-0.990441,0.106771,0
14201,-1.1580001,1.8919501,10.40295,-0.682,0.259,0.732,-0.476,1.62,9.66,-0.057475,0.2677125,1.1402875,0.034741,-0.079133,-0.988146,0.126872,0
14242,-1.7899501,1.7220001,10.98795,-1.262,0.07,1.324,-0.519,1.647,9.653,0.0352,0.0589875,1.3608375,0.038899,-0.079448,-0.984524,0.151282,0
14281,-1.335,1.3609501,11.81595,-0.889,-0.37,2.164,-0.437,1.728,9.643,0.4316125,-0.14025,1.708025,0.037825,-0.083095,-0.979812,0.177853,0
14321,-1.62495,1.46595,10.521001,-1.288,-0.45,0.901,-0.353,1.903,9.613,0.535975,-0.096525,1.880725,0.038227,-0.091558,-0.972822,0.209216,0
14361,-0.34605002,0.67800003,10.621051,-0.242,-1.244,0.95,-0.184,1.967,9.605,0.0022,-0.078375,2.0362375,0.033539,-0.095497,-0.964243,0.244929,0
14402,-0.29295,0.01995,12.402,-0.048,-1.763,2.669,-0.119,1.77,9.644,-0.411125,0.63525,1.88595,0.031461,-0.084829,-0.955915,0.279355,0
14441,-1.84695,-0.18,11.62905,-1.562,-1.771,1.945,-0.278,1.595,9.671,0.061875,0.443575,1.9680375,0.039363,-0.073083,-0.945957,0.313484,0
14481,-1.9810501,0.010050001,9.181951,-1.627,-1.588,-0.448,-0.374,1.594,9.668,0.26221249,0.36795,2.031975,0.048233,-0.067136,-0.933196,0.349729,0
14521,-1.8690001,0.42000002,8.598001,-1.392,-1.26,-1.061,-0.447,1.659,9.654,0.111925,0.410575,2.013825,0.05418,-0.069524,-0.91804,0.386565,0
14562,-1.93095,0.13005,9.927,-1.342,-1.453,0.134,-0.55,1.602,9.659,-0.1522125,0.2827,1.9393,0.060165,-0.062389,-0.90273,0.421385,0
14601,-2.013,-0.21105,11.29905,-1.396,-1.725,1.622,-0.606,1.521,9.668,0.1183875,0.29975,1.9734,0.063242,-0.055273,-0.886354,0.455326,0
14641,-2.49105,-0.03195,9.87705,-1.806,-1.602,0.218,-0.672,1.575,9.655,0.3537875,0.2508,2.079825,0.069745,-0.053798,-0.867696,0.489228,0
14681,-2.3740501,0.34305,8.847,-1.554,-1.293,-0.795,-0.815,1.634,9.635,0.297275,0.4169,2.2748,0.079983,-0.049203,-0.846047,0.524772,0
14721,-2.2350001,0.44595003,9.010051,-1.27,-1.296,-0.649,-0.936,1.71,9.61,0.0831875,0.4296875,2.376,0.089303,-0.045463,-0.820926,0.562172,0
14762,-1.9429501,0.03195,9.771001,-0.932,-1.688,0.162,-1.001,1.715,9.603,-0.0606375,0.4648875,2.5465,0.094126,-0.039265,-0.793057,0.600548,0
14801,-1.6129501,-0.00495,9.71895,-0.51,-1.713,0.118,-1.096,1.713,9.593,0.062975,0.6491375,2.704075,0.09995,-0.031183,-0.760837,0.64044,0
14841,-1.2220501,-0.18705001,8.983951,-0.066,-1.941,-0.602,-1.145,1.764,9.578,0.0939125,0.575575,2.7275875,0.103428,-0.023922,-0.725663,0.67981,0
14881,-1.06005,-0.28800002,9.3,0.158,-2.027,-0.285,-1.21,1.749,9.573,0.1375,0.6864,2.79785,0.107775,-0.017232,-0.687532,0.717904,0
14921,0.165,0.112950005,8.90505,1.351,-1.732,-0.664,-1.187,1.852,9.556,0.2611125,0.4829,2.738175,0.111817,-0.015632,-0.646896,0.754172,0
14961,1.21605,0.30495003,8.62005,2.244,-1.628,-0.951,-1.032,1.928,9.559,0.0405625,0.40094998,2.3131626,0.110834,-0.018899,-0.608252,0.785739,0
15002,0.89295006,-0.00795,9.637051,1.827,-1.862,0.047,-0.942,1.862,9.581,-0.2300375,0.7269625,1.927475,0.106017,-0.015527,-0.575063,0.811062,0
15041,0.55995005,0.24705002,10.354951,1.514,-1.455,0.74,-0.958,1.697,9.611,-0.1681625,0.6534,1.68685,0.099823,-0.006151,-0.54384,0.833207,0
15081,0.15300001,0.666,10.00605,1.101,-1.018,0.381,-0.951,1.677,9.615,0.1247125,0.2508,1.610125,0.09873,-0.003121,-0.518009,0.849652,0
15122,0.642,1.4110501,8.92395,1.477,-0.4,-0.676,-0.822,1.768,9.61,0.179025,0.2156,1.4865125,0.099614,-0.008102,-0.491526,0.865108,0
15161,-0.26700002,1.7220001,9.015,0.538,-0.157,-0.514,-0.785,1.851,9.598,0.15455,0.39875,1.356575,0.102704,-0.009015,-0.467198,0.87812,0
15202,-0.24105,2.2150502,8.091001,0.51,0.283,-1.544,-0.739,1.968,9.578,-0.0499125,0.0738375,1.2724249,0.107279,-0.011279,-0.442438,0.890287,0
15241,-0.24795002,1.23405,10.092,0.398,-0.641,0.473,-0.642,1.859,9.607,-0.4717625,0.16445,1.0965625,0.100263,-0.010748,-0.42334,0.900341,0
15281,-0.84705,1.1190001,11.026051,-0.167,-0.547,1.378,-0.677,1.664,9.64,-0.4376625,0.2517625,1.2489125,0.091678,-0.002488,-0.40186,0.911096,0
15321,-0.00105,1.593,11.205001,0.594,0.013,1.533,-0.594,1.566,9.662,-0.0435875,-0.146575,1.3437876,0.085598,-0.002655,-0.378347,0.921693,0
15361,0.42105,1.69095,9.324,0.833,0.07,-0.346,-0.424,1.618,9.662,0.014025,-0.0358875,1.239425,0.084803,-0.010637,-0.355042,0.930935,0
15401,0.98205006,0.99000007,10.585051,1.266,-0.568,0.903,-0.285,1.548,9.679,-0.275825,0.3381125,1.0945,0.079367,-0.012503,-0.33342,0.939348,0
15442,0.24705002,0.93705004,9.76605,0.573,-0.55,0.076,-0.328,1.476,9.689,0.062975,0.2497,1.1626999,0.077072,-0.007694,-0.312736,0.946676,0
15481,1.3810501,0.93000007,8.545051,1.613,-0.567,-1.149,-0.237,1.493,9.689,0.0715,0.1793,1.1072875,0.076715,-0.010647,-0.290569,0.953714,0
15521,0.53205,1.02795,8.241,0.714,-0.447,-1.453,-0.182,1.469,9.694,-0.18205,0.2805,0.90695,0.073977,-0.011993,-0.270878,0.959691,0
15561,0.87900007,0.93900007,9.76395,1.027,-0.406,0.037,-0.155,1.332,9.714,-0.375925,0.2443375,0.7888375,0.067476,-0.009655,-0.255217,0.964477,0
15601,0.13605,1.059,10.19295,0.276,-0.145,0.455,-0.14,1.193,9.732,-0.24915,0.0441375,0.750475,0.060668,-0.007783,-0.241209,0.968543,0
15642,0.024,1.6170001,9.880951,0.156,0.479,0.134,-0.143,1.127,9.74,-0.1618375,0.2528625,0.8591,0.057645,-0.005731,-0.225815,0.972446,0
15681,-0.52305,1.9879501,8.743951,-0.349,0.842,-0.995,-0.168,1.132,9.739,-0.198,-0.0922625,0.9741875,0.058166,-0.003831,-0.208548,0.976273,0
15721,0.064950004,1.35105,9.850051,0.148,0.3,0.097,-0.093,1.047,9.75,-0.5080625,0.0600875,1.0924375,0.053284,-0.005602,-0.188776,0.980557,0
15761,-0.85095006,0.89895004,9.87705,-0.701,0,0.11,-0.142,0.899,9.764,-0.3364625,0.0664125,1.3789876,0.046175,-4.23E-04,-0.165761,0.985084,0
15801,2.253,1.2390001,10.044001,2.27,0.418,0.264,-0.022,0.801,9.773,-0.2960375,0.087725,1.2276,0.040688,-0.004526,-0.138542,0.989509,0
15841,0.58695,0.90795004,9.811951,0.635,0.19,0.068,-0.002,0.733,9.779,-0.1425875,0.444675,0.6567,0.03708,-0.003994,-0.121007,0.99195,0
15882,0.50295,1.116,7.9609504,0.675,0.331,-1.699,-0.199,0.747,9.776,0.1375,0.8003875,0.631125,0.040042,0.005459,-0.108008,0.993328,0
15921,0.61995006,1.27695,7.96605,0.958,0.362,-1.724,-0.358,0.876,9.76,0.111925,0.49995,0.531025,0.046328,0.013905,-0.09668,0.994139,0
15961,0.61305004,1.251,8.09805,0.972,0.244,-1.658,-0.359,1.002,9.748,0.382525,0.0515625,0.5319875,0.052601,0.01387,-0.086213,0.99479,0
16001,-0.38700002,2.09295,8.536051,0.083,0.8,-1.185,-0.33,1.225,9.724,0.551925,0.1357125,0.57035,0.064297,0.012143,-0.074758,0.995052,0
16042,-0.99300003,2.9239502,6.56295,-0.701,1.37,-3.027,-0.326,1.581,9.672,0.52525,-0.2552,0.7291625,0.0823,0.011202,-0.062461,0.994585,0
16081,0.36900002,1.6360501,8.839951,0.522,-0.105,-0.595,-0.222,1.712,9.653,-0.3535125,0.1942875,0.58959997,0.087779,0.007101,-0.049017,0.994907,0
16121,-3.186,1.9540501,10.5400505,-2.697,0.234,0.88,-0.358,1.647,9.66,0.1258125,0.3774375,0.6780125,0.085163,0.015369,-0.037611,0.995538,0
16161,-0.34395,1.8199501,9.465,-0.119,-0.037,-0.175,-0.22,1.848,9.628,0.72875,-0.67815,1.203125,0.095601,0.008682,-0.018229,0.995214,0
16202,-0.049050003,2.4550502,8.76795,-0.064,0.348,-0.82,0.023,2.102,9.578,0.2398,-0.2883375,0.825,0.10808,-0.001582,4.50E-04,0.99414,0
16241,1.7670001,0.19905001,14.643001,1.445,-1.763,5.037,0.311,1.954,9.604,-0.8201875,-0.6153125,0.3232625,0.099543,-0.015572,0.010462,0.994856,0
16281,0.84000003,-0.25395,13.81305,0.293,-2.083,4.363,0.434,1.752,9.639,-0.2011625,-0.265925,0.23375,0.08983,-0.021355,0.013362,0.995638,0
16321,0.59895,0.20205002,12.027,0.008,-1.483,2.381,0.576,1.674,9.645,-0.2767875,-0.0752125,0.0526625,0.085903,-0.028251,0.015935,0.995775,0
16362,-0.12105001,1.4800501,10.64805,-0.613,-0.12,0.973,0.504,1.591,9.663,-0.072325,0.2613875,0.45113748,0.081863,-0.023925,0.020649,0.996142,0
16401,0.94305,2.39295,8.875951,0.467,0.778,-0.795,0.472,1.605,9.662,0.0683375,-0.0017875,0.19965,0.082863,-0.021869,0.028233,0.99592,0
16441,0.78495,1.07295,10.116,0.274,-0.483,0.435,0.501,1.546,9.67,-0.374825,0.06215,-0.086899996,0.079457,-0.023317,0.028582,0.996155,0
16481,-0.504,0.78405005,10.971001,-0.801,-0.591,1.258,0.282,1.363,9.707,-0.25025,0.777975,-0.348975,0.070006,-0.012711,0.024455,0.997165,0
16521,-0.91605,0.83205,10.71195,-0.97,-0.481,0.987,0.057,1.312,9.718,0.22165,-0.0017875,-0.0644875,0.067304,-0.001553,0.020376,0.997523,0
16561,0.043050002,1.2790501,8.208,0.03,-0.118,-1.508,0.004,1.385,9.708,0.0416625,0.307175,-0.0400125,0.07081,0.001218,0.02006,0.997287,0
16602,-1.1410501,1.35105,9.405001,-0.993,-0.008,-0.313,-0.137,1.357,9.711,-0.1032625,0.14739999,-0.144375,0.069119,0.009925,0.018204,0.997392,0
16641,-0.73395,1.5670501,8.581051,-0.516,0.21,-1.129,-0.204,1.354,9.71,-0.073425,-0.114675,-0.0559625,0.069044,0.011552,0.016216,0.997414,0
16681,-0.633,1.389,9.634951,-0.399,0.095,-0.088,-0.229,1.288,9.718,-0.2864125,0.105875,-0.121,0.065369,0.01278,0.01436,0.997675,0
16721,-0.99000007,1.4419501,8.943001,-0.657,0.202,-0.789,-0.325,1.226,9.724,-0.0765875,0.1079375,-0.078375,0.062384,0.017512,0.012456,0.99782,0
16761,-0.84405005,1.2580501,8.434951,-0.472,0.015,-1.289,-0.384,1.237,9.72,0.0022,-0.0507375,-0.0314875,0.06302,0.020389,0.011408,0.997738,0
16802,-0.73395,1.14795,7.8799505,-0.313,-0.099,-1.788,-0.408,1.273,9.715,0.094875,-0.07315,-0.1145375,0.064871,0.021534,0.009788,0.997613,0
16841,-1.1050501,1.0020001,8.581051,-0.643,-0.304,-1.128,-0.462,1.301,9.708,0.1428625,0.113299996,-0.1412125,0.066487,0.024217,0.006643,0.997471,0
16881,-0.36795002,1.6699501,6.8050504,0.167,0.209,-2.887,-0.535,1.452,9.683,0.550825,-0.0188375,-0.034649998,0.074671,0.027736,0.005306,0.996808,0
16921,-0.11400001,1.7820001,6.9820504,0.416,0.136,-2.871,-0.456,1.661,9.654,0.01925,-0.13805,-0.328625,0.084981,0.023444,0.001807,0.996105,0
16961,-1.5499501,1.014,11.304001,-1.031,-0.614,1.523,-0.499,1.621,9.658,0.010725,0.26455,-0.2594625,0.083095,0.025454,-0.005011,0.996203,0
17002,-1.3560001,2.0070002,10.05405,-0.746,0.251,0.421,-0.602,1.75,9.63,0.517825,0.0334125,-0.160325,0.090371,0.030207,-0.00778,0.995419,0
17041,-0.99000007,1.3099501,11.967001,-0.385,-0.621,2.371,-0.527,1.861,9.613,0.1428625,-0.3554375,-0.2435125,0.095831,0.025513,-0.012605,0.99499,0
17081,0.30195,0.216,12.64395,0.747,-1.642,3.018,-0.448,1.846,9.62,-0.2556125,-0.0603625,-0.3606625,0.094772,0.021178,-0.01878,0.995096,0
17121,-0.96405005,0.384,13.695001,-0.435,-1.34,4.048,-0.518,1.722,9.64,-0.2767875,-0.0188375,-0.379775,0.08658,0.024534,-0.026688,0.995585,0
17161,0.26295,0.27105,13.0990505,0.694,-1.255,3.409,-0.435,1.514,9.679,-0.091437496,-0.07315,0.0378125,0.078001,0.019889,-0.029776,0.99631,0
17201,0.072000004,1.6789501,10.00605,0.498,0.124,0.323,-0.429,1.55,9.673,0.45925,0.1144,0.0803,0.080363,0.019841,-0.028025,0.996174,0
17242,0.35895002,2.56995,7.0470004,0.759,0.857,-2.607,-0.405,1.703,9.649,0.1343375,-0.2244,-0.095425,0.087878,0.018078,-0.028077,0.995571,0
17281,0.57495004,1.4899501,9.522,0.935,-0.141,-0.143,-0.365,1.617,9.665,-0.4302375,0.0419375,-0.364925,0.083361,0.015952,-0.032837,0.99585,0
17321,0.00705,0.95100003,10.960951,0.404,-0.508,1.26,-0.404,1.447,9.69,-0.342925,0.0441375,-0.414975,0.07415,0.017836,-0.040868,0.996249,0
17361,-0.88005006,0.89100003,10.99905,-0.466,-0.49,1.29,-0.404,1.375,9.701,0.0565125,-0.1370875,-0.212575,0.071335,0.017133,-0.047183,0.996188,0
17401,-0.42495003,1.605,8.610001,-0.046,0.153,-1.084,-0.373,1.443,9.692,0.1918125,-0.164725,0.0292875,0.074666,0.015464,-0.048451,0.99591,0
17441,-0.14505,1.5790501,8.578951,0.168,0.079,-1.121,-0.302,1.485,9.688,-0.0925375,-0.112475,-0.0378125,0.076619,0.011773,-0.048575,0.995806,0
17482,-0.507,1.38195,9.493951,-0.184,-0.047,-0.23,-0.299,1.433,9.696,-0.1436875,0.0132,-0.0517,0.073972,0.011621,-0.049667,0.995954,0
17521,-0.56895,1.47105,8.93295,-0.242,0.061,-0.778,-0.315,1.408,9.699,-0.0691625,-0.047575,0.0165,0.072662,0.012441,-0.050107,0.996019,0
17561,-0.33705002,1.38705,9.514951,-0.012,0.008,-0.198,-0.314,1.367,9.705,-0.1661,0.052525,0.125125,0.070289,0.012718,-0.048571,0.996262,0
17601,-0.15900001,1.6650001,9.25905,0.173,0.298,-0.432,-0.324,1.35,9.707,0.029975,0.0589875,0.226325,0.069731,0.013468,-0.044954,0.996461,0
17642,-0.10695001,1.7340001,9.346951,0.21,0.355,-0.384,-0.318,1.403,9.7,0.077825,4.13E-04,0.30621248,0.072345,0.013383,-0.039988,0.996487,0
17681,0.10305001,1.7580001,8.512051,0.364,0.229,-1.093,-0.253,1.506,9.686,0.2717,-0.0231,0.3168,0.077431,0.01034,-0.033627,0.996376,0
17721,-0.00105,1.96905,8.241,0.232,0.342,-1.481,-0.232,1.633,9.666,0.0928125,0.0451,0.2806375,0.083991,0.009561,-0.027575,0.996038,0
17762,0.060000002,1.4680501,9.024,0.266,-0.206,-0.645,-0.212,1.663,9.662,0.0257125,0.0334125,0.2827,0.085393,0.008962,-0.022293,0.996057,0
17801,0.108,1.6789501,8.41605,0.383,-0.061,-1.154,-0.252,1.715,9.652,0.297275,0.3381125,0.2220625,0.088,0.011446,-0.016845,0.995912,0
17841,-0.19800001,1.4470501,7.42995,0.075,-0.391,-2.161,-0.305,1.855,9.624,0.2963125,0.039875,0.2380125,0.095504,0.014464,-0.012205,0.995249,0
17881,-0.17595,1.3249501,9.37395,0.165,-0.563,-0.247,-0.329,1.884,9.618,-0.0319,0.3359125,0.227425,0.096673,0.01639,-0.007682,0.995151,0
17921,0.036000002,1.69605,11.94495,0.469,-0.17,2.326,-0.442,1.859,9.618,0.05335,0.3146,0.191125,0.095373,0.022718,-0.002271,0.995179,0
17961,-0.06795,1.4760001,11.778001,0.352,-0.467,2.164,-0.421,1.938,9.603,0.263175,-0.34265,0.0600875,0.099593,0.021248,5.00E-05,0.994801,0
18001,0.16005,0.16395001,12.73995,0.455,-1.78,3.127,-0.304,1.938,9.608,-0.2853125,-0.088,-0.1529,0.099378,0.015456,-0.00157,0.994928,0
18041,-1.8349501,0.54705,12.58905,-1.43,-1.311,2.963,-0.394,1.856,9.621,-0.0510125,0.1687125,-0.145475,0.095126,0.019957,-0.004444,0.995255,0
18081,-1.4260501,1.31295,10.273951,-0.997,-0.492,0.638,-0.418,1.8,9.63,-0.073425,-0.232925,0.0963875,0.092256,0.020695,-0.005551,0.995504,0
18122,-0.83505005,1.84695,9.988951,-0.401,0.123,0.337,-0.431,1.709,9.646,-0.273625,0.1079375,0.2028125,0.087596,0.021854,-0.002456,0.995913,0
18161,-0.588,2.163,9.996,-0.143,0.537,0.321,-0.441,1.609,9.663,-0.274725,-0.011275,0.1485,0.082349,0.022687,0.001171,0.996344,0
18201,-0.933,2.22495,10.123051,-0.482,0.642,0.451,-0.443,1.577,9.668,-0.0595375,-0.064625,0.126225,0.080634,0.022977,0.003655,0.996472,0
18241,-0.49905002,1.8829501,9.28005,-0.071,0.266,-0.388,-0.416,1.614,9.663,0.0650375,-0.0944625,0.1155,0.082531,0.021718,0.00608,0.996333,0
18281,-0.61695004,1.5160501,8.871,-0.213,-0.133,-0.792,-0.399,1.645,9.659,0.02145,-0.0188375,-0.0815375,0.084084,0.020969,0.006139,0.996219,0
18321,-0.85095006,1.2270001,8.89305,-0.393,-0.396,-0.78,-0.45,1.622,9.66,-0.040425,0.0792,-0.06985,0.082942,0.02342,0.004251,0.99627,0
18361,-0.624,1.3420501,8.16705,-0.118,-0.243,-1.556,-0.508,1.605,9.66,0.0309375,0.0664125,-0.0826375,0.082135,0.026378,0.00292,0.996267,0
18401,-0.65295005,1.69605,7.39095,-0.085,0.042,-2.269,-0.555,1.647,9.651,0.0715,0.0259875,-0.0229625,0.084375,0.028619,0.001706,0.996021,0
18441,-0.22395001,1.8229501,7.2070503,0.331,0.108,-2.474,-0.563,1.718,9.638,0.069299996,0.0270875,-0.0752125,0.087945,0.028958,0.001183,0.995703,0
18481,0.03795,1.81095,7.5450006,0.565,0.007,-2.094,-0.538,1.79,9.626,0.1747625,-0.04015,-0.17105,0.091905,0.02745,-0.001204,0.995388,0
18522,-0.47295,1.9810501,7.3360505,0.074,0.078,-2.278,-0.537,1.895,9.606,0.1705,0.019524999,-0.3202375,0.09836,0.027111,-0.006146,0.994762,0
18561,-0.744,1.6339501,9.358951,-0.156,-0.315,-0.239,-0.578,1.935,9.596,-0.0020625,0.0686125,-0.3905,0.099592,0.0285,-0.013151,0.994533,0
18601,-1.8760501,1.7200501,11.193001,-1.133,-0.302,1.567,-0.667,1.956,9.586,0.3399,0.106975,-0.2520375,0.101267,0.032389,-0.01971,0.994136,0
18641,-0.98100007,2.39295,10.5400505,-0.373,0.321,0.692,-0.655,2.138,9.548,0.4613125,-0.3372875,-0.0528,0.11094,0.030847,-0.022398,0.993095,0
18681,0.74895006,1.1520001,12.939001,1.242,-1.03,3.376,-0.492,2.175,9.549,-0.3482875,-0.450175,-0.1656875,0.111898,0.022006,-0.025769,0.993141,0
18722,0.41205,-0.45795003,15.892951,0.909,-2.422,6.288,-0.501,1.973,9.593,-0.3898125,0.484,-0.3499375,0.101559,0.023133,-0.030629,0.994088,0
18761,-0.91395,0.75495005,12.687,-0.309,-1.208,3.09,-0.603,1.957,9.59,0.146025,-0.30745,-0.13585,0.10154,0.027022,-0.035853,0.993817,0
18801,0.13605,0.94200003,11.17395,0.63,-1.058,1.58,-0.493,1.998,9.588,0.08745,-0.0561,-0.00275,0.103425,0.021412,-0.037234,0.993709,0
18841,0.31395,1.593,9.832951,0.831,-0.464,0.256,-0.518,2.044,9.577,0.1843875,0.0653125,-0.045375,0.105968,0.022648,-0.037536,0.993402,0
18881,0.27105,2.01405,8.026051,0.756,-0.093,-1.544,-0.497,2.095,9.567,-0.0094875,-0.148775,-0.295625,0.108401,0.020876,-0.041256,0.993031,0
18922,-0.40095,1.8060001,9.319051,0.145,-0.216,-0.265,-0.54,2.014,9.582,-0.3227125,0.2624875,-0.345675,0.104185,0.023096,-0.047468,0.993155,0
18961,-0.37695003,1.5310501,9.537001,0.244,-0.382,-0.065,-0.612,1.906,9.6,-0.0584375,-0.0688875,-0.2242625,0.099229,0.026181,-0.052513,0.993332,0
19001,-0.73905003,1.60695,8.854051,-0.165,-0.265,-0.756,-0.569,1.872,9.609,-0.1447875,-0.0933625,-0.117837496,0.097318,0.023672,-0.056293,0.993377,0
19041,-0.22905001,1.4110501,10.39095,0.344,-0.378,0.751,-0.562,1.778,9.627,-0.1596375,-0.0188375,0.075075,0.09171,0.023076,-0.056184,0.993931,0
19081,0.117000006,1.44,9.618,0.583,-0.312,-0.023,-0.468,1.743,9.639,0.111925,-0.20735,0.0878625,0.090566,0.018816,-0.05461,0.994214,0
19121,-0.10695001,1.5640501,8.964001,0.285,-0.209,-0.677,-0.38,1.761,9.639,-0.0350625,-0.0177375,0.0026125,0.091061,0.014543,-0.054051,0.99427,0
19162,-0.47100002,1.57095,9.166051,-0.074,-0.177,-0.437,-0.402,1.729,9.644,-0.023375,0.020624999,0.0878625,0.089516,0.015861,-0.053217,0.994436,0
19201,-0.25800002,1.69305,8.27505,0.137,-0.049,-1.376,-0.382,1.738,9.643,-0.0158125,0.022824999,0.1368125,0.089889,0.014976,-0.05108,0.994528,0
19241,-0.38700002,1.9110001,8.63595,0.016,0.149,-1.004,-0.398,1.756,9.639,-0.01375,0.0686125,0.192225,0.090887,0.016101,-0.047518,0.994596,0
19281,-0.19800001,1.7920501,8.215051,0.175,0.019,-1.42,-0.378,1.792,9.633,0.014025,-0.0433125,0.2369125,0.092578,0.015287,-0.043221,0.994649,0
19321,-0.09195001,1.725,8.86905,0.33,-0.112,-0.739,-0.361,1.803,9.632,0.097075,0.23045,0.2156,0.093132,0.015132,-0.038412,0.994797,0
19362,-0.34395,2.05305,7.7310004,0.063,0.143,-1.834,-0.418,1.903,9.611,0.2259125,0.089925,0.242275,0.098446,0.018135,-0.033745,0.994404,0
19401,-0.15495001,1.7389501,8.743951,0.26,-0.247,-0.852,-0.41,1.977,9.596,-0.0265375,0.0856625,0.23485,0.101759,0.017666,-0.029235,0.994222,0
19441,0.32805002,1.7490001,9.625051,0.732,-0.218,0.016,-0.405,1.961,9.599,0.0405625,0.1420375,0.20927499,0.101085,0.018407,-0.024315,0.99441,0
19481,0.079050004,1.7989501,9.77595,0.458,-0.189,0.17,-0.39,1.987,9.595,0.0831875,0.0845625,0.1975875,0.102335,0.017969,-0.020527,0.994375,0
19521,-0.24795002,1.9620001,11.63595,0.141,-0.039,2.039,-0.386,2.001,9.592,0.161975,0.1368125,0.3295875,0.10307,0.018317,-0.014905,0.994393,0
19562,0.402,2.9530501,10.971001,0.712,0.777,1.404,-0.317,2.164,9.559,0.586025,-0.44275,0.50325,0.111756,0.015077,-0.006319,0.993601,0
19601,1.6380001,1.7580001,11.529,1.585,-0.533,1.987,0.048,2.29,9.535,-0.08195,-0.5993625,0.126225,0.117403,-0.003392,-9.33E-04,0.993078,0
19641,-0.55395,0.882,14.043,-0.642,-1.294,4.478,0.097,2.165,9.563,-0.0105875,0.4851,-0.0539,0.111101,-0.004726,-0.001581,0.993796,0
19681,-0.45600003,1.8589501,9.486,-0.457,-0.448,-0.053,0.008,2.301,9.532,0.549725,-0.3554375,-0.011275,0.118691,-8.89E-04,-0.001031,0.99293,0
19722,-0.57405,1.03005,8.86095,-0.737,-1.326,-0.666,0.165,2.348,9.519,-0.526075,-0.148775,-0.295625,0.120066,-0.009255,-0.005738,0.992706,0
19761,-1.4070001,0.49905002,13.21395,-1.449,-1.591,3.628,0.035,2.072,9.585,-0.4984375,0.53735,-0.0719125,0.106247,-0.002851,-0.009432,0.99429,0
19801,-0.99705005,1.69605,9.847951,-0.935,-0.403,0.266,-0.055,2.102,9.578,0.5124625,-0.10725,0.16665,0.107831,0.002032,-0.00766,0.994137,0
19841,-0.63795,2.69895,6.76905,-0.656,0.428,-2.771,0.03,2.267,9.54,0.1940125,-0.121,0.2316875,0.116608,-0.00222,-0.004235,0.993166,0
19881,0.20595,2.3089502,8.971951,0.148,0.069,-0.44,0.028,2.219,9.552,-0.3449875,0.121825,0.0856625,0.113883,-0.001537,-5.09E-04,0.993492,0
19921,-0.69105005,1.8250501,10.33395,-0.684,-0.281,0.746,0.002,2.103,9.578,-0.1639,-0.00495,-0.1167375,0.10788,-2.88E-04,-0.001284,0.994163,0
19962,-1.02795,1.79595,9.87705,-0.909,-0.263,0.312,-0.103,2.046,9.59,-0.0083875,0.14533749,-0.0155375,0.104936,0.005166,-0.002941,0.994461,0
20001,-0.69795,1.899,9.489,-0.493,-0.146,-0.11,-0.202,2.04,9.589,0.011825,0.111237496,-0.011275,0.104644,0.010209,-0.002815,0.994453,0
20041,-0.63105005,1.8060001,9.172951,-0.378,-0.237,-0.423,-0.249,2.036,9.589,0.0363,0.0686125,-0.093225,0.104458,0.012378,-0.003915,0.994444,0
20081,-0.46095002,1.8610501,8.37495,-0.119,-0.187,-1.166,-0.333,2.054,9.583,0.102437496,0.172975,-0.0463375,0.105569,0.016736,-0.005201,0.994257,0
20121,-0.25005,2.1769502,7.2840004,0.114,0.025,-2.21,-0.385,2.148,9.56,0.2173875,0.0015125,-0.088,0.110677,0.01907,-0.006234,0.993653,0
20162,0.12495001,2.1030002,7.4080505,0.468,-0.139,-2.146,-0.346,2.236,9.541,0.0235125,-0.0188375,-0.23595,0.114998,0.016716,-0.009421,0.99318,0
20201,-0.33195,2.35695,7.9230003,0.051,0.081,-1.618,-0.38,2.277,9.53,0.130075,0.0334125,-0.2882,0.117329,0.017923,-0.014533,0.992824,0
20241,-0.41595003,2.4379501,8.500051,-0.054,0.08,-1.052,-0.392,2.359,9.51,0.1076625,-0.164725,-0.2487375,0.121702,0.017633,-0.020031,0.992207,0
20281,-0.68100005,2.0050502,9.699,-0.314,-0.404,0.198,-0.366,2.406,9.499,0.2099625,-0.10725,-0.3095125,0.123705,0.016007,-0.025995,0.991849,0
20322,-1.2750001,2.29695,9.70905,-0.829,-0.185,0.218,-0.436,2.474,9.479,0.3463625,0.020624999,-0.314875,0.128196,0.018389,-0.032415,0.991048,0
20361,-1.1719501,2.496,10.111051,-0.661,-0.065,0.652,-0.51,2.557,9.453,0.1258125,0.019524999,-0.22,0.132631,0.021259,-0.038007,0.990208,0
20401,-0.87000006,1.8250501,11.428051,-0.301,-0.698,1.967,-0.556,2.524,9.459,-0.07865,-0.028324999,-0.280775,0.130871,0.023038,-0.042832,0.990205,0
20441,-0.22605,0.90300006,12.727951,0.348,-1.482,3.225,-0.566,2.381,9.496,-0.173525,0.03025,-0.2563,0.123499,0.023248,-0.048135,0.990903,0
20481,-0.62895006,1.22895,11.418,-0.023,-0.999,1.882,-0.602,2.225,9.531,0.0715,0.086625,-0.21367499,0.115661,0.024974,-0.052612,0.991579,0
20522,-0.91605,1.677,9.670951,-0.269,-0.506,0.131,-0.644,2.178,9.539,-0.1522125,0.0132,-0.1401125,0.113516,0.026728,-0.055919,0.9916,0
20561,-0.016050002,1.2550501,11.43,0.612,-0.741,1.846,-0.625,1.983,9.583,-0.5687,-0.0325875,-0.03355,0.103396,0.026133,-0.057423,0.992637,0
20601,-0.34905002,1.4610001,11.48805,0.292,-0.318,1.858,-0.632,1.776,9.623,-0.1788875,0.191125,-0.0889625,0.092421,0.027426,-0.058326,0.993631,0
20641,-0.85605,2.187,8.77005,-0.195,0.404,-0.865,-0.652,1.792,9.619,0.0726,-0.1923625,-0.0070125,0.093669,0.027866,-0.059422,0.993437,0
20681,0.31605002,2.0359502,8.928,0.858,0.215,-0.7,-0.543,1.811,9.622,-0.1436875,-0.117837496,0.059125,0.094101,0.022198,-0.058564,0.99359,0
20722,0.75705004,1.7839501,9.517051,1.177,0.028,-0.131,-0.426,1.752,9.639,-0.172425,-0.1115125,-0.146575,0.090877,0.016513,-0.058863,0.993983,0
20761,-0.44700003,1.7080501,9.642,-0.055,0.007,-0.021,-0.378,1.692,9.652,-0.1351625,-0.079475,-0.111375,0.087695,0.013943,-0.06221,0.994105,0
20801,0.04605,1.9210501,9.168,0.372,0.25,-0.491,-0.327,1.669,9.657,-0.040425,-0.2041875,-5.50E-04,0.086798,0.010636,-0.062832,0.994185,0
20841,-0.303,2.0689502,9.154051,-0.061,0.377,-0.519,-0.224,1.678,9.659,-0.1607375,-0.27445,-0.0314875,0.086382,0.005721,-0.063825,0.994199,0
20881,-0.06105,1.9090501,9.90795,0.084,0.289,0.19,-0.151,1.612,9.671,-0.2608375,-0.055,0.0345125,0.082581,0.002387,-0.064029,0.994522,0
20922,-0.29595003,1.9980001,9.199051,-0.084,0.376,-0.346,-0.161,1.587,9.675,0.115225,0.0600875,0.0484,0.081565,0.003124,-0.063038,0.994667,0
20961,-0.52095,2.39505,6.7780504,-0.367,0.654,-2.77,-0.16,1.748,9.648,0.308,-0.1881,0.1049125,0.090133,0.002415,-0.061868,0.994003,0
21001,-0.19995001,2.1319501,7.971,-0.1,0.292,-1.845,-0.147,1.901,9.619,-0.1852125,0.0803,0.1293875,0.097599,0.001749,-0.060023,0.993412,0
21042,-0.078,1.89495,9.84105,0.122,0.038,0.206,-0.19,1.854,9.627,0.0831875,0.1335125,0.0845625,0.095487,0.004366,-0.057427,0.993763,0
21081,-0.43005002,1.96395,8.998051,-0.218,0.027,-0.636,-0.202,1.937,9.611,0.163075,-0.0273625,0.1027125,0.099871,0.004707,-0.056025,0.99341,0
21121,-0.49005002,1.77495,9.63,-0.218,-0.211,0.028,-0.258,1.982,9.6,0.2270125,0.3529625,0.2028125,0.102417,0.008116,-0.052767,0.993307,0
21162,-0.29295,2.3140502,8.34195,0.045,0.185,-1.234,-0.331,2.115,9.569,0.3421,-0.0655875,0.2391125,0.110267,0.01145,-0.048085,0.992672,0
21201,0.049950004,1.6309501,10.19505,0.307,-0.541,0.626,-0.266,2.162,9.561,-0.040425,0.1868625,0.2209625,0.111411,0.008885,-0.043881,0.992765,0
21241,-0.58305,2.35905,11.37495,-0.183,0.182,1.818,-0.388,2.174,9.554,0.4453625,0.3051125,0.4500375,0.112685,0.015957,-0.037019,0.992812,0
21281,0.34005,3.3379502,8.31795,0.619,0.893,-1.184,-0.292,2.443,9.492,0.587125,-0.3862375,0.3562625,0.126546,0.010922,-0.028678,0.991485,0
21321,1.1850001,2.5069501,9.44295,1.306,0.004,-0.042,-0.121,2.501,9.481,-0.4153875,-0.37454998,0.0154,0.128269,0.002485,-0.026377,0.991385,0
21361,0.13905,0.48195,14.35095,0.226,-1.747,4.791,-0.098,2.214,9.552,-0.5473875,0.376475,-0.2861375,0.113259,0.002083,-0.029706,0.993119,0
21402,-1.4449501,0.91305006,11.458951,-1.291,-1.237,1.887,-0.151,2.15,9.566,-0.0840125,-0.3691875,-0.2327875,0.110411,0.003611,-0.034994,0.993263,0
21441,-1.5790501,0.75000006,11.646001,-1.476,-1.302,2.056,-0.093,2.043,9.59,-0.4302375,0.2039125,-0.0218625,0.104858,7.92E-04,-0.037983,0.993761,0
21481,-0.97305006,1.45605,11.28705,-0.772,-0.492,1.666,-0.198,1.935,9.611,-0.0424875,0.258225,0.23485,0.099468,0.006729,-0.034699,0.994412,0
21521,-0.55905,2.2470002,8.11005,-0.336,0.228,-1.4,-0.221,1.994,9.599,0.1951125,0.0237875,0.2167,0.102549,0.008292,-0.029931,0.994242,0
21562,-0.70995003,2.421,8.37495,-0.48,0.413,-1.235,-0.227,1.997,9.598,-0.1959375,0.1122,0.139975,0.10248,0.009047,-0.026432,0.994342,0
21601,-0.291,2.019,10.209001,-0.017,0.098,0.588,-0.268,1.912,9.614,-0.258775,0.038775,0.06545,0.09832,0.011366,-0.024301,0.994793,0
21641,-0.171,1.84395,10.413,0.083,-0.011,0.697,-0.273,1.85,9.626,0.0033,0.1442375,-0.088,0.095093,0.011716,-0.024219,0.995104,0
21681,-1.21305,1.914,9.187051,-0.839,0.041,-0.413,-0.361,1.866,9.62,0.044825,0.111237496,-0.1199,0.096326,0.017317,-0.02686,0.994836,0
21721,-0.76500005,1.84695,9.07695,-0.316,-0.055,-0.515,-0.462,1.881,9.613,0.0427625,0.1005125,0.004675,0.097101,0.02111,-0.027694,0.994665,0
21762,-0.69105005,2.1340501,8.265,-0.189,0.187,-1.346,-0.491,1.936,9.6,0.1013375,-0.0188375,-0.009075,0.100033,0.022407,-0.027665,0.994346,0
21801,-0.38700002,2.15295,8.16705,0.069,0.152,-1.429,-0.49,2.001,9.587,0.08635,-0.079475,0.025024999,0.103367,0.0222,-0.02766,0.99401,0
21841,0.23895001,2.1649501,7.6860003,0.654,0.073,-1.851,-0.434,2.082,9.573,0.2003375,-0.0902,-0.10285,0.10757,0.019191,-0.028211,0.993611,0
21881,-0.19095,2.0070002,7.18305,0.239,-0.193,-2.345,-0.371,2.212,9.546,0.263175,-0.122099996,-0.30525,0.114419,0.015295,-0.032381,0.992786,0
21921,-0.64095,2.05005,7.28805,-0.207,-0.28,-2.304,-0.379,2.312,9.522,0.08745,-0.0347875,-0.37235,0.119502,0.014828,-0.03921,0.991948,0
21961,-1.0999501,1.9420501,9.283051,-0.656,-0.361,-0.248,-0.432,2.295,9.524,-0.08085,-0.031625,-0.4288625,0.118712,0.016683,-0.047137,0.991668,0
22001,-1.4449501,1.65795,10.7029505,-0.931,-0.589,1.157,-0.512,2.237,9.534,0.0501875,0.03135,-0.33825,0.116217,0.020001,-0.055094,0.991492,0
22041,-1.404,2.15805,10.2960005,-0.821,-0.134,0.764,-0.58,2.286,9.518,0.3345375,0.104775,-0.146575,0.119068,0.023774,-0.059931,0.99079,0
22081,-1.713,2.8240502,9.46695,-1.033,0.387,-0.01,-0.669,2.431,9.476,0.3537875,-0.148775,-0.1337875,0.127294,0.026293,-0.062961,0.989515,0
22121,-0.79905003,2.19405,11.124001,-0.147,-0.268,1.643,-0.639,2.457,9.472,-0.19167499,-0.179575,-0.042075,0.128271,0.024497,-0.06534,0.989281,0
22161,0.35700002,0.91995007,13.177951,0.941,-1.388,3.656,-0.587,2.292,9.516,-0.4387625,-0.0231,-0.1816375,0.119113,0.022191,-0.067455,0.990337,0
22202,-0.99000007,1.1400001,12.90795,-0.344,-1.047,3.357,-0.636,2.177,9.54,-0.099,0.037675,-0.1529,0.111948,0.025084,-0.071111,0.990848,0
22241,-0.10395,1.2529501,10.53495,0.479,-0.82,0.96,-0.575,2.073,9.567,-0.0999625,-0.2542375,0.055825,0.107967,0.021416,-0.072043,0.991329,0
22281,0.40500003,1.15995,11.29905,0.87,-0.761,1.685,-0.477,1.913,9.606,-0.3003,0.1260875,-0.0144375,0.099298,0.017525,-0.071413,0.992337,0
22321,-0.20205002,1.9900501,9.69495,0.303,0.126,0.068,-0.493,1.865,9.614,0.144925,-0.0528,0.0270875,0.09713,0.018381,-0.071204,0.992551,0
22361,0.61095005,2.1750002,7.8300004,1.01,0.25,-1.791,-0.406,1.914,9.609,-9.63E-04,-0.231825,-0.0218625,0.099323,0.013562,-0.071198,0.992412,0
22401,0.052950002,1.69095,9.24495,0.474,-0.152,-0.469,-0.365,1.854,9.622,-0.292875,0.0473,-0.245575,0.095392,0.011228,-0.074053,0.992617,0
22442,-0.29295,1.2889501,9.72105,0.067,-0.45,0.065,-0.353,1.73,9.646,-0.174625,-0.1370875,-0.1923625,0.089573,0.010975,-0.078612,0.992812,0
22481,-0.11595,1.1550001,9.964951,0.194,-0.49,0.291,-0.302,1.63,9.665,-0.1991,-0.0677875,-0.117837496,0.084225,0.008562,-0.08163,0.99306,0
22521,-0.39195,1.5670501,9.786,-0.079,-0.029,0.155,-0.301,1.553,9.678,-0.087175,-0.0240625,-0.0389125,0.080461,0.00874,-0.083102,0.993248,0
22562,0.28695002,1.7629501,9.075001,0.54,0.222,-0.611,-0.254,1.534,9.682,-0.1084875,-0.113575,0.022824999,0.079555,0.005492,-0.082941,0.993358,0
22601,-0.147,1.6360501,9.154051,0.086,0.134,-0.535,-0.224,1.496,9.689,-0.1852125,0.1016125,-0.062425,0.077077,0.005144,-0.083485,0.99351,0
22641,-0.633,1.53495,8.40705,-0.338,0.058,-1.288,-0.288,1.467,9.691,0.01925,0.153725,0.032449998,0.076028,0.008535,-0.083675,0.993551,0
22681,-0.76005006,1.84905,7.12095,-0.382,0.303,-2.568,-0.366,1.535,9.678,0.0683375,0.06435,0.1475375,0.079871,0.012256,-0.081751,0.993371,0
22721,-1.12695,1.78005,8.14095,-0.69,0.18,-1.536,-0.426,1.589,9.667,0.05335,0.061049998,0.2902625,0.08288,0.015428,-0.07768,0.993407,0
22762,-0.31005,1.6530001,7.8180003,0.134,-0.021,-1.849,-0.434,1.669,9.653,0.02035,-0.0251625,0.426525,0.086902,0.01605,-0.070204,0.99361,0
22801,-0.55695003,1.2100501,9.493951,-0.089,-0.42,-0.234,-0.442,1.63,9.66,-0.12979999,0.1601875,0.46915,0.084579,0.017534,-0.061733,0.994347,0
22841,0.31395,1.5979501,9.723001,0.765,-0.007,0.046,-0.452,1.6,9.664,0.0331375,0.1750375,0.5405125,0.083123,0.019121,-0.050703,0.995064,0
22881,-0.09195001,1.5640501,9.987,0.334,-0.086,0.324,-0.415,1.639,9.659,0.077825,-0.0081125,0.4500375,0.084825,0.017665,-0.041794,0.995362,0
22921,-0.24300002,2.0050502,9.54405,0.19,0.331,-0.119,-0.422,1.67,9.654,0.01925,0.3625875,0.597025,0.086695,0.018859,-0.031356,0.995562,0
22961,0.39000002,2.4859502,11.908951,0.805,0.78,2.255,-0.416,1.699,9.649,0.0331375,-0.27555,0.595925,0.087427,0.019342,-0.018016,0.99582,0
23002,1.9849501,1.2240001,11.3869505,2.062,-0.47,1.725,-0.078,1.675,9.662,-0.3685,-0.483175,0.1016125,0.085802,0.00298,-0.011979,0.996235,0
23041,-0.82005006,-0.37695003,15.253951,-0.713,-1.791,5.538,-0.103,1.423,9.702,-0.5047625,0.6843375,-0.17105,0.072359,0.004969,-0.014,0.997267,0
23081,-0.69795,0.80295,11.031,-0.451,-0.673,1.325,-0.238,1.477,9.691,0.7085375,-0.17325,0.328625,0.075667,0.011331,-0.01144,0.997003,0
23121,0.22695,1.3420501,7.176,0.319,-0.332,-2.498,-0.098,1.667,9.663,-9.63E-04,-0.1838375,0.0793375,0.085387,0.004399,-0.007313,0.996311,0
23161,-0.52305,0.48000002,11.48505,-0.369,-1.014,1.79,-0.154,1.478,9.693,-0.6837875,0.3125375,-0.0155375,0.075017,0.007657,-0.007044,0.997127,0
23202,-1.3470001,0.53505003,11.401951,-1.027,-0.848,1.852,-0.256,1.338,9.711,-0.006325,0.172975,-0.0889625,0.068538,0.012718,-0.008036,0.997535,0
23241,-1.3039501,1.2790501,8.365951,-1.015,-0.135,-1.339,-0.278,1.401,9.701,0.19085,0.0270875,0.0963875,0.072138,0.013681,-0.007859,0.997269,0
23281,-0.72405005,1.50195,8.269951,-0.406,0.076,-1.484,-0.318,1.42,9.698,-0.093637496,0.171875,0.082499996,0.072603,0.016011,-0.005515,0.997217,0
23321,-0.61395,1.03995,9.714001,-0.248,-0.311,0.004,-0.364,1.346,9.706,-0.2470875,-0.0273625,-5.50E-04,0.068682,0.018239,-0.004969,0.997459,0
23361,-1.2250501,0.702,10.49205,-0.773,-0.564,0.795,-0.399,1.244,9.719,-0.038225,0.0600875,-0.0517,0.063662,0.020112,-0.005861,0.997751,0
23402,-0.89895004,0.9580501,9.382951,-0.464,-0.312,-0.307,-0.447,1.226,9.719,0.0394625,-0.0177375,0.0708125,0.062824,0.0225,-0.00561,0.997755,0
23441,-0.657,1.27005,9.484051,-0.15,0.051,-0.295,-0.477,1.199,9.721,-0.1458875,0.06325,0.023924999,0.061358,0.024465,-0.004462,0.997805,0
23481,-0.44205,1.3770001,9.502951,-0.008,0.209,-0.217,-0.495,1.165,9.724,-0.0691625,-0.0017875,0.0506,0.059575,0.025052,-0.003988,0.997901,0
23521,-0.09195001,1.6699501,8.952001,0.405,0.462,-0.772,-0.487,1.199,9.72,0.15345,0.02805,-0.0506,0.061532,0.024735,-0.003532,0.997792,0
23561,-0.64995,1.6020001,7.5540004,-0.178,0.261,-2.159,-0.461,1.332,9.704,0.246125,-0.1881,-0.160325,0.068489,0.023018,-0.006144,0.997367,0
23601,0.26805001,1.3969501,8.08605,0.691,-0.016,-1.618,-0.433,1.405,9.695,-0.056375,0.06215,-0.2222,0.07203,0.021542,-0.009641,0.997123,0
23641,-1.03995,1.2859501,8.59095,-0.548,-0.131,-1.111,-0.486,1.411,9.692,0.181225,0.0749375,-0.4246,0.072936,0.024009,-0.016678,0.996908,0
23681,-1.0639501,1.3609501,7.7550006,-0.506,-0.157,-1.924,-0.555,1.506,9.674,0.1758625,-0.061325,-0.262625,0.077846,0.026614,-0.023277,0.996338,0
23721,-1.1340001,1.2790501,8.77305,-0.529,-0.276,-0.894,-0.601,1.542,9.665,0.165275,-0.0081125,-0.2424125,0.080093,0.028534,-0.028601,0.995968,0
23761,-1.54305,1.64295,8.434951,-0.9,0.015,-1.219,-0.636,1.622,9.65,0.164175,-0.1593625,-0.1241625,0.084058,0.029844,-0.032611,0.995479,0
23801,-0.92805004,1.7370001,9.987,-0.284,0.07,0.339,-0.646,1.66,9.643,0.047025,-0.0848375,0.0174625,0.086103,0.030192,-0.033638,0.99526,0
23841,-0.61005,1.8750001,10.597051,0.001,0.173,0.955,-0.6,1.692,9.64,0.1280125,-0.2127125,-0.1199,0.087886,0.027377,-0.034204,0.995166,0
23882,-1.1410501,0.84105,11.722951,-0.694,-0.687,1.842,-0.544,1.64,9.653,-0.55385,-0.3980625,-0.1252625,0.084463,0.024311,-0.037978,0.995405,0
23921,0.393,-0.112950005,15.92895,0.87,-1.466,6.222,-0.496,1.344,9.701,-0.68488747,0.38073748,-0.025024999,0.069078,0.023099,-0.038795,0.996588,0
23961,-1.194,0.91095006,13.104001,-0.576,-0.364,3.396,-0.603,1.263,9.706,0.02035,-0.2446125,-5.50E-04,0.065746,0.028004,-0.039199,0.996672,0
24001,1.113,0.22800002,12.8880005,1.584,-1.069,3.154,-0.482,1.229,9.717,-0.1692625,0.14739999,0.1049125,0.063708,0.022255,-0.037682,0.997008,0
24042,0.24195,1.4680501,10.935,0.831,0.184,1.406,-0.613,1.245,9.707,0.4103,0.2613875,0.058025,0.065531,0.029571,-0.03587,0.996767,0
24081,0.39000002,2.1340501,7.2310505,0.944,0.641,-2.62,-0.59,1.483,9.675,0.685025,-0.364925,-0.0837375,0.07757,0.027037,-0.036254,0.99596,0
24121,-0.15195,1.7869501,6.393,0.325,0.152,-3.27,-0.472,1.632,9.658,0.0479875,-0.17105,-0.23815,0.084446,0.020671,-0.040752,0.995379,0
24161,-0.26505002,0.68100005,9.63,0.279,-0.815,-0.124,-0.507,1.507,9.676,-0.36107498,0.1144,-0.2776125,0.077742,0.022576,-0.045434,0.995681,0
24202,-0.92595005,0.34095,9.943951,-0.388,-1.061,0.251,-0.523,1.402,9.691,-0.1777875,-0.1018875,-0.117837496,0.072773,0.0231,-0.049763,0.995838,0
24241,-0.52095,0.52500004,9.75195,0.022,-0.87,0.094,-0.498,1.36,9.699,-0.0350625,0.003575,0.03025,0.070701,0.021979,-0.050048,0.995998,0
24281,-0.64500004,1.095,8.63595,-0.145,-0.255,-1.025,-0.522,1.331,9.701,-0.01485,0.0323125,0.175175,0.069265,0.023386,-0.048132,0.996161,0
24321,-0.15,1.4470501,8.233951,0.378,0.121,-1.475,-0.528,1.322,9.702,-0.106425,0.036575,0.2305875,0.069125,0.023452,-0.044004,0.996361,0
24362,0.048,1.5310501,8.46405,0.549,0.211,-1.246,-0.508,1.313,9.704,-0.11495,0.2294875,0.1496,0.068059,0.023516,-0.039739,0.996612,0
24401,-0.58095,1.7200501,7.77405,0.006,0.372,-1.933,-0.578,1.343,9.696,0.054449998,0.124025,0.207075,0.069779,0.027144,-0.036226,0.996534,0
24441,0.064950004,1.64295,7.5109506,0.617,0.205,-2.18,-0.562,1.428,9.685,0.097075,0.020624999,0.2572625,0.074031,0.026476,-0.031068,0.99642,0
24481,-0.59295005,1.6500001,7.4779506,-0.051,0.148,-2.199,-0.534,1.499,9.676,0.0044,0.0270875,0.2146375,0.077416,0.025261,-0.02654,0.996325,0
24521,-0.22605,0.97800004,10.291051,0.284,-0.481,0.41,-0.52,1.443,9.685,-0.275825,0.070675,0.360525,0.074024,0.025052,-0.020873,0.996723,0
24562,-0.00105,1.07805,10.891951,0.539,-0.346,1.301,-0.527,1.417,9.689,0.230175,0.0760375,0.2880625,0.072874,0.025965,-0.013967,0.996905,0
24601,-0.78900003,1.1329501,11.14305,-0.275,-0.339,1.458,-0.501,1.47,9.682,0.05335,0.052525,0.309375,0.075462,0.024943,-0.009048,0.996795,0
24641,0.34500003,1.58595,12.673051,0.881,0.057,2.994,-0.54,1.522,9.672,0.32615,0.1368125,0.5779125,0.078576,0.027804,8.34E-04,0.996519,0
24681,1.4460001,1.9110001,10.305,1.835,0.206,0.646,-0.391,1.7,9.65,0.347325,-0.4789125,0.1837,0.08733,0.017897,0.008143,0.995985,0
24721,0.024,0.52005005,12.016951,0.206,-1.123,2.346,-0.195,1.634,9.667,-0.3205125,0.113299996,-0.2179375,0.08326,0.010732,0.006606,0.996448,0
24762,-1.4620501,0.40305,12.208951,-1.139,-1.116,2.519,-0.321,1.51,9.684,-0.01155,0.1931875,-0.1315875,0.077223,0.01671,0.003385,0.996868,0
24801,-1.2559501,0.87705004,10.012951,-0.908,-0.606,0.322,-0.339,1.476,9.688,-0.071225,-0.2904,-0.112475,0.075415,0.017165,7.00E-04,0.997004,0
24841,-0.99300003,0.441,12.027,-0.635,-0.865,2.312,-0.349,1.291,9.714,-0.5229125,0.20487499,-0.096525,0.066023,0.017742,-0.001493,0.997659,0
24881,-1.4790001,0.84105,12.130051,-0.976,-0.31,2.544,-0.526,1.128,9.727,0.1417625,0.17613749,0.075075,0.057878,0.026952,-0.001488,0.997958,0
24921,-1.1190001,1.389,8.253,-0.63,0.075,-1.371,-0.495,1.311,9.705,0.6232875,-0.2297625,0.1464375,0.067037,0.025346,2.91E-04,0.997428,0
24962,-0.79095006,1.6189501,7.9159503,-0.377,0.121,-1.771,-0.412,1.485,9.684,0.2866875,-0.088,0.1783375,0.076196,0.021253,0.003161,0.996861,0
25001,-0.109050006,1.164,8.73495,0.279,-0.383,-0.946,-0.387,1.542,9.676,0.0587125,-0.07315,0.1282875,0.078858,0.020201,0.006251,0.996661,0
25041,-0.135,1.296,9.285001,0.253,-0.256,-0.412,-0.341,1.559,9.675,0.069299996,-0.10615,-0.0900625,0.07971,0.017846,0.006237,0.996638,0
25081,-0.85605,1.15995,8.86905,-0.518,-0.407,-0.808,-0.325,1.565,9.675,0.1087625,-0.0070125,-0.2222,0.080116,0.016926,0.002594,0.996638,0
25121,-1.098,1.5690001,9.142051,-0.706,-0.02,-0.53,-0.382,1.586,9.669,0.0320375,-0.10615,-0.117837496,0.081239,0.019417,-9.02E-04,0.996505,0
25161,-0.55395,1.7700001,8.835,-0.176,0.115,-0.835,-0.368,1.641,9.661,0.249425,-0.2222,0.0111375,0.084298,0.018469,-0.002172,0.996267,0
25202,-0.79605,2.2680001,8.205,-0.523,0.46,-1.436,-0.266,1.8,9.636,0.4197875,-0.4395875,0.03355,0.093743,0.013863,-0.002804,0.995495,0
25241,0.70395005,2.2390501,7.9540505,0.75,0.213,-1.641,-0.055,2.02,9.596,0.398475,-0.5812125,-0.0666875,0.103976,0.002001,-0.002952,0.994573,0
25281,0.105000004,2.2009501,7.8750005,-0.098,-0.021,-1.678,0.193,2.214,9.551,0.4613125,-0.6898375,-0.5534375,0.114005,-0.011642,-0.010245,0.993359,0
25321,-0.81795,1.5450001,7.9159503,-1.179,-0.834,-1.594,0.361,2.373,9.508,0.42941248,-0.7858125,-0.3575,0.122306,-0.022739,-0.022848,0.991968,0
25361,0.67305005,2.4169502,10.04895,0.156,-0.042,0.557,0.516,2.45,9.481,-0.1351625,-0.2585,0.082499996,0.124364,-0.030589,-0.026646,0.991407,0
25402,0.36900002,1.4830501,11.113951,-0.091,-0.929,1.616,0.447,2.406,9.496,0.49335,0.680075,0.0345125,0.123042,-0.026063,-0.024834,0.991748,0
25441,0.85995007,3.14895,8.93595,0.569,0.486,-0.499,0.288,2.659,9.434,0.39421248,-0.181775,0.03025,0.136918,-0.018103,-0.022188,0.990168,0
25481,2.0020502,1.8280501,13.36305,1.594,-0.741,3.904,0.392,2.55,9.46,-0.8776625,0.055825,-0.179575,0.130667,-0.023482,-0.025078,0.99083,0
25521,2.11905,0.66405004,13.257001,1.985,-1.649,3.721,0.098,2.297,9.533,-0.3014,1.387375,-0.3361875,0.11756,-0.006896,-0.027883,0.99265,0
25561,-1.005,2.2440002,10.399051,-0.677,-0.061,0.863,-0.32,2.295,9.528,0.0576125,0.078099996,-0.618475,0.118415,0.01235,-0.03575,0.992243,0
25602,0.192,0.88395005,9.948001,0.324,-1.228,0.125,-0.212,2.165,9.562,-0.8509875,-0.2531375,-0.330825,0.110622,0.005621,-0.046374,0.992764,0
25641,0.43305,1.1040001,12.385951,0.864,-0.752,2.761,-0.442,1.855,9.619,-0.5016,1.1466125,-0.025024999,0.095579,0.019273,-0.046912,0.994128,0
25681,-0.06795,2.31795,8.481,0.72,0.405,-0.925,-0.766,1.847,9.6,0.315425,0.271975,-0.06985,0.096427,0.034878,-0.045838,0.993672,0
25722,-0.66705,1.8010501,7.8700504,0.086,-0.126,-1.727,-0.753,1.923,9.586,0.0342375,-0.1115125,-0.145475,0.100442,0.033698,-0.049264,0.99315,0
25761,0.33,1.404,8.976001,0.997,-0.443,-0.658,-0.75,1.884,9.594,-0.14685,0.0792,0.0143,0.098243,0.03367,-0.049668,0.993351,0
25801,0.77295005,0.64005005,9.477,1.44,-1.09,-0.146,-0.65,1.752,9.626,-0.29067498,-0.0411125,-0.2105125,0.091046,0.02866,-0.051279,0.994112,0
25841,-0.97305006,0.32895002,10.02,-0.159,-1.217,0.279,-0.678,1.521,9.664,-0.4962375,0.4296875,-0.2179375,0.079194,0.030794,-0.055867,0.994815,0
25881,-0.89895004,0.86505,11.81595,-0.011,-0.482,2.134,-0.887,1.34,9.673,-0.0243375,0.290125,0.1357125,0.070967,0.04185,-0.054707,0.995097,0
25921,-0.20505,1.4490001,8.00205,0.545,0.027,-1.679,-0.749,1.415,9.674,0.1098625,-0.435325,0.175175,0.074492,0.033953,-0.052521,0.995258,0
25962,-0.90900004,1.332,10.80105,-0.175,-0.033,1.115,-0.723,1.354,9.685,-0.3333,0.1698125,0.2294875,0.070694,0.033701,-0.048998,0.995723,0
