Timestamp,Milliseconds,linear-x,linear-y,linear-z,gravity-x,gravity-y,gravity-z,rotation-x,rotation-y,rotation-z,rotation-w,acc-x,acc-y,acc-z,gyr-x,gyr-y,gyr-z
2022/12/14 18:42,3,-0.7092757,-0.27951846,0.67518044,-0.34717184,0.21685745,9.798103,-0.014942408,0.015678242,0.9584469,0.28444755,-1.1545563,-0.15733337,10.569641,0.11198425,-0.19892883,-0.103500366
2022/12/14 18:42,40,-0.6940895,-0.23702466,-0.5533724,-0.32964417,0.288352,9.796865,-0.011837071,0.019242993,0.9582154,0.28515393,-0.8750305,0.12997437,9.255829,0.1513977,-0.001846314,0.1404419
2022/12/14 18:42,80,0.41395867,0.10081014,-0.32410145,-0.3237173,0.31554222,9.796226,-0.011294466,0.020098796,0.959064,0.2822494,0.08743286,0.4501953,9.65387,-0.001998901,-0.012496948,0.10423279
2022/12/14 18:42,121,0.118216455,-0.004783809,-0.38776588,-0.31752905,0.29660597,9.797019,-0.011317809,0.019051073,0.9598742,0.27955398,-0.23338318,0.28977966,9.554504,-0.11491394,-0.02848816,0.050964355
2022/12/14 18:42,161,0.4496653,0.006292224,0.44429588,-0.29605064,0.23878512,9.799272,-0.011135805,0.01588074,0.9607302,0.2768056,0.10180664,0.2670288,10.411621,-0.12876892,-0.033813477,0.022201538
2022/12/14 18:42,200,-0.13232026,0.051290855,-0.011581421,-0.28804794,0.21932942,9.799965,-0.011044365,0.014794586,0.9612359,0.27510855,-0.4716034,0.26164246,9.805298,-0.033950806,-0.03807068,0.003036499
2022/12/14 18:42,240,-0.45974097,-0.17093687,-0.17292976,-0.26584354,0.1895828,9.801212,-0.010414402,0.012991033,0.96214086,0.27204356,-0.6691284,7.63E-05,9.93338,-0.12876892,-0.09559631,0.11701965
2022/12/14 18:42,281,0.20636219,-0.103212684,0.65024567,-0.2517151,0.16422972,9.802043,-0.010127564,0.011502615,0.9634459,0.2674643,-0.079559326,0.072509766,10.509186,0.032089233,-0.003982544,0.09677124
2022/12/14 18:42,320,0.12657961,-0.12668666,0.46677017,-0.24485563,0.20541444,9.801441,-0.009281227,0.013396717,0.9644668,0.26370084,-0.1741333,0.15211487,10.118332,0.1897583,-0.008239746,0.074401855
2022/12/14 18:42,360,-0.0956945,0.070824474,-0.36048603,-0.22869521,0.26826277,9.800312,-0.007489621,0.016415153,0.9660105,0.25787237,-0.2824707,0.30892944,9.5946045,0.094940186,-0.076416016,0.09677124
2022/12/14 18:42,400,0.24325855,0.045022458,-0.3420992,-0.19606082,0.29153222,9.800355,-0.005671559,0.01688402,0.96682477,0.25481883,0.11616516,0.34484863,9.540146,0.002258301,-0.0753479,0.06587219
2022/12/14 18:42,440,0.40320534,-0.035557777,0.04551506,-0.17103432,0.2836701,9.801054,-0.004797983,0.016195294,0.96763766,0.25177777,0.08444214,0.22514343,9.959717,-0.027557373,-0.003982544,-0.04171753
2022/12/14 18:42,480,-0.059632108,-0.14277115,0.045523643,-0.17295827,0.26683757,9.801494,-0.005137375,0.015379697,0.968111,0.24999633,-0.20645142,0.13774109,9.972885,-0.05206299,0.002410889,-0.028930664
2022/12/14 18:42,521,-0.021189854,0.01875192,0.41071987,-0.1689018,0.252924,9.801933,-0.005145474,0.01462998,0.9686499,0.2479451,-0.20645142,0.28019714,10.288925,0.007598877,-0.013565064,-0.03211975
2022/12/14 18:42,560,-0.07179317,0.024840444,-0.08801174,-0.16469684,0.27381182,9.801443,-0.004712077,0.015597303,0.9692449,0.24555817,-0.2363739,0.2640381,9.766388,0.0640564,-0.019958496,0.011550903
2022/12/14 18:42,600,0.040273994,-0.037338167,-0.22104836,-0.1613119,0.28417748,9.801205,-0.004459444,0.016055107,0.9699153,0.2428719,-0.0765686,0.24249268,9.73587,-0.017974854,0.010940552,0.004089356
2022/12/14 18:42,640,-0.00127025,-0.04155773,0.08221722,-0.17116374,0.26969984,9.801447,-0.005167822,0.015446988,0.9705739,0.24025187,-0.07896423,0.26045227,10.036942,-0.049926758,0.03970337,0.007293701
2022/12/14 18:42,680,0.079841375,-0.10701853,0.309371,-0.178734,0.2566998,9.801661,-0.005735552,0.014883214,0.97112143,0.23805209,-0.18609619,0.14134216,10.306885,0.008651733,0.010940552,-0.036392212
2022/12/14 18:42,721,-0.16408964,-0.02857086,0.08367729,-0.18439262,0.27197674,9.801143,-0.005869632,0.015694113,0.9717002,0.23562245,-0.31478882,0.30593872,9.849594,0.083221436,-0.003982544,0.034988403
2022/12/14 18:42,760,0.31873375,0.03209272,-0.35760212,-0.1827357,0.29282522,9.800574,-0.005590265,0.016691137,0.9723628,0.23281056,0.14907837,0.30593872,9.527573,0.001205444,0.009872437,0.004089356
2022/12/14 18:42,800,-0.00691314,-0.14284012,-0.08640766,-0.18336107,0.27297127,9.801135,-0.005877851,0.015704507,0.9727587,0.23121275,-0.1920929,0.09764099,9.864548,-0.07763672,-0.009307861,-0.011886597
2022/12/14 18:42,840,0.06992027,-0.06356804,0.11883354,-0.17764595,0.24515635,9.801975,-0.005934779,0.014251649,0.9729835,0.23035797,-0.15258789,0.21736145,9.980072,-0.053131104,-0.001846314,-0.05130005
2022/12/14 18:42,880,-0.1078113,0.011877298,0.2012682,-0.16881467,0.21999738,9.80273,-0.005799724,0.012895797,0.9731396,0.22978117,-0.20465088,0.16827393,10.202133,-0.059524536,-0.041259766,-0.001235962
2022/12/14 18:42,921,0.22773555,0.04969816,0.18297482,-0.16052273,0.22216478,9.802819,-0.005382267,0.012898064,0.97348714,0.22831438,0.08444214,0.27720642,9.962112,0.061920166,-0.010375977,-0.003356934
2022/12/14 18:42,960,-0.11524287,-0.04509276,-0.44409275,-0.15197963,0.23220064,9.802723,-0.00484807,0.013294387,0.97360057,0.22781953,-0.33154297,0.13175964,9.509613,-0.04460144,-0.026351929,-0.038513184
2022/12/14 18:42,1000,2.22E-04,-0.11874072,0.12823963,-0.14869037,0.202966,9.803422,-0.005041369,0.011797196,0.97394615,0.22641625,-0.07476807,0.12219238,10.073441,-0.069107056,2.75E-04,0.011550903
2022/12/14 18:42,1040,0.12695938,0.09998095,0.3063593,-0.15116183,0.18345359,9.803768,-0.005401952,0.01085028,0.9742168,0.22528787,-0.093322754,0.2808075,10.341003,-0.016906738,0.008804321,-0.038513184
2022/12/14 18:42,1080,-0.16614291,0.059795246,0.14469242,-0.1551443,0.19619086,9.80346,-0.005470382,0.011520893,0.97453797,0.22385962,-0.23876953,0.29756165,9.9782715,0.06085205,0.003479004,0.006225586
2022/12/14 18:42,1121,0.3191908,0.15008914,-0.17311764,-0.1538878,0.21668945,9.803048,-0.005201845,0.01251383,0.9750233,0.22168861,0.102996826,0.32868958,9.71492,0.015045166,-0.014633179,-0.036392212
2022/12/14 18:42,1160,0.043800667,0.009890467,0.17955685,-0.14613634,0.22096911,9.803071,-0.004757259,0.012701237,0.97518855,0.22095992,-0.04244995,0.2849884,10.075241,0.029968262,-7.78E-04,-0.07048035
2022/12/14 18:42,1200,0.1673606,-0.01908131,-0.071302414,-0.14898527,0.24055949,9.8025675,-0.004697861,0.013642135,0.9751667,0.22100183,-0.0370636,0.26763916,9.795715,0.05126953,0.020523071,-0.10243225
2022/12/14 18:42,1240,-0.41907954,-0.12364164,-0.21406746,-0.1605471,0.24396142,9.8023,-0.005227867,0.013944212,0.9750544,0.22146598,-0.58354187,0.08148193,9.724487,-0.028625488,0.010940552,-0.05769348
2022/12/14 18:42,1280,-0.023752078,-0.042186067,0.22597218,-0.16495267,0.22704078,9.802634,-0.005654809,0.013145257,0.97534513,0.22022046,-0.12625122,0.20358276,10.178192,-0.020111084,0.001342773,0.04244995
2022/12/14 18:42,1320,0.10148719,0.05977598,0.02468586,-0.15766317,0.23536983,9.802558,-0.005216599,0.013470782,0.9756348,0.21892476,-0.06819153,0.28977966,9.91243,0.04273987,-0.031677246,0.008361816
2022/12/14 18:42,1361,-0.07115772,0.019075364,-0.18945217,-0.15003599,0.24839853,9.802356,-0.004710142,0.014027746,0.9759169,0.21764003,-0.18910217,0.26882935,9.717911,0.006530762,-0.007171631,0.017944336
2022/12/14 18:42,1400,-0.18723992,-0.057790354,-0.021129608,-0.15186037,0.24159269,9.802498,-0.00489524,0.013702532,0.97621775,0.21630336,-0.29862976,0.16647339,9.95314,-0.03501892,0.010940552,0.029663086
2022/12/14 18:42,1440,-0.16813423,-0.075340435,0.2907381,-0.15740357,0.23197617,9.802643,-0.005320582,0.013287693,0.9768129,0.21361573,-0.25852966,0.15510559,10.211716,0.008651733,-7.78E-04,0.064819336
2022/12/14 18:42,1480,0.31771287,-0.037837505,0.09569073,-0.15482229,0.25575504,9.802093,-0.004951697,0.01441819,0.9771747,0.2118897,0.114974976,0.21975708,9.963913,0.097076416,-0.007171631,0.022201538
2022/12/14 18:42,1520,-0.119279236,-0.014604688,-0.1515894,-0.14088722,0.28401121,9.801523,-0.003973912,0.015670404,0.977456,0.21051946,-0.232193,0.29457092,9.768784,0.040618896,-0.0476532,0.01687622
2022/12/14 18:42,1561,0.17174256,0.05982119,-0.04725933,-0.12947753,0.30038688,9.801194,-0.003257846,0.016358709,0.97781277,0.20881556,0.112579346,0.36219788,9.898666,0.04273987,-0.007171631,-0.003356934
2022/12/14 18:42,1600,0.04526014,-0.061379522,0.116841316,-0.12248845,0.31487322,9.800829,-0.002763106,0.017005544,0.97790235,0.20835117,-0.10110474,0.23950195,10.102173,0.048065186,-0.017822266,-0.0438385
2022/12/14 18:42,1640,0.05510761,-0.043707013,-0.21404457,-0.11979353,0.33821657,9.800083,-0.002385694,0.018140823,0.97794116,0.20807777,-0.019699097,0.30114746,9.653259,0.048065186,-0.006103516,-0.027862549
2022/12/14 18:42,1680,-0.03444367,-0.05215338,-0.028935432,-0.111757204,0.34987086,9.799769,-0.001860364,0.01863706,0.97792405,0.2081196,-0.18191528,0.3418579,9.873535,0.026763916,-0.019958496,-0.0395813
2022/12/14 18:42,1721,-0.12806295,4.57E-04,-0.13131332,-0.11784578,0.35384354,9.799556,-0.002137021,0.018898234,0.97808504,0.20733546,-0.086746216,0.35203552,9.927994,-0.028625488,-0.027420044,0.008361816
2022/12/14 18:42,1760,0.04189767,-0.14682776,0.4702406,-0.09454525,0.34701586,9.800053,-0.00105666,0.018310426,0.9782086,0.2068129,-0.0657959,0.17366028,10.3415985,0.06724548,-0.04446411,-0.006561279
2022/12/14 18:42,1800,-0.07598566,-6.41E-04,-0.27197838,-0.08510009,0.37461078,9.799123,-3.11E-04,0.019587765,0.9783561,0.2059988,-0.1968689,0.33766174,9.664642,0.06724548,-0.019958496,0.008361816
2022/12/14 18:42,1840,0.057199,-0.04641238,-0.14317703,-0.07574591,0.3848669,9.798802,2.30E-04,0.02000186,0.9786991,0.20432328,0.030578613,0.3705902,9.73407,-0.003067017,-0.0519104,0.04031372
2022/12/14 18:42,1881,0.08734292,0.002750665,0.29866886,-0.053189028,0.381892,9.799067,0.001293693,0.019620216,0.97902834,0.20277292,0.08024597,0.34544373,10.184174,0.031021118,-0.007171631,0.03817749
2022/12/14 18:42,1920,0.14009634,0.103419125,-0.5210695,-0.053862605,0.39930046,9.798368,0.001404615,0.020499319,0.9793608,0.20107271,0.07965088,0.55075073,9.373749,-0.016906738,-0.013565064,0.01687622
2022/12/14 18:42,1960,0.14660639,-0.036523283,0.3840704,-0.033967156,0.37198758,9.799533,0.002092332,0.018933188,0.97966474,0.19973533,0.119155884,0.3430481,10.385895,-0.05845642,-0.025283813,-0.002304077
2022/12/14 18:42,2001,0.020139478,-0.045999616,-0.16899014,-0.034378335,0.37297234,9.799495,0.00206451,0.01898849,0.9798454,0.19884193,0.009628296,0.38015747,9.609573,0.012924194,0.003479004,0.001968384
2022/12/14 18:42,2040,-0.09043248,-0.16473603,0.39190674,-0.022388732,0.36224148,9.799932,0.00253617,0.018332994,0.98005843,0.19784562,-0.17712402,0.14613342,10.390076,0.001205444,-0.03274536,0.010482788
2022/12/14 18:42,2080,0.038746275,-0.014229775,-0.08658314,-0.006597631,0.38879672,9.798938,0.003542749,0.019510834,0.98054564,0.19528703,0.2705841,0.47354126,9.651474,0.0960083,-0.0476532,0.09358215
2022/12/14 18:42,2121,0.58465916,0.035337865,-0.12667847,0.020900337,0.40501985,9.798261,0.005040671,0.020058503,0.98090696,0.19337475,0.52737427,0.38435364,9.91423,-0.012649536,-0.05618286,-0.04916382
2022/12/14 18:42,2160,0.12587453,-0.013909161,-0.14580727,0.02385716,0.4054793,9.798235,0.005093658,0.020061022,0.9807998,0.19391577,0.03475952,0.36160278,9.623337,-0.005187988,0.042892456,-0.10775757
2022/12/14 18:42,2200,-0.11963313,-0.0906688,0.04404354,-0.007135794,0.38880515,9.798938,0.0035014,0.019519225,0.9806906,0.19455764,-0.1274414,0.3604126,9.99205,-0.04460144,0.07698059,-0.087524414
2022/12/14 18:42,2240,-0.282816,-0.015365273,0.23872757,-0.024516957,0.37761647,9.799347,0.002512369,0.019132964,0.9807877,0.19412139,-0.16874695,0.3598175,10.2703705,-0.012649536,-0.003982544,0.019012451
2022/12/14 18:42,2280,0.3250623,-0.026990503,0.7637358,-0.02129969,0.4172191,9.797748,0.003056067,0.021084465,0.9808349,0.1936724,0.23287964,0.42086792,10.497818,0.23449707,0.03756714,-0.05555725
2022/12/14 18:42,2321,-0.27490795,-0.078033924,-0.6717119,-0.06633277,0.5170292,9.792787,0.001808961,0.026525004,0.9805666,0.19437648,-0.4207306,0.4789276,8.869766,0.2259674,0.052474976,-0.044906616
2022/12/14 18:42,2360,-0.17439416,-0.11118513,-0.732852,-0.068425626,0.54292774,9.791369,0.001934637,0.027844338,0.980716,0.19343486,-0.15498352,0.48849487,9.224106,-0.07443237,0.013061523,0.04031372
2022/12/14 18:42,2400,0.24682003,0.027528524,0.088786125,-0.07952349,0.49703175,9.793723,8.95E-04,0.025656724,0.98100775,0.19226205,0.1407013,0.5172272,10.109955,-0.1308899,0.050354004,-0.017211914
2022/12/14 18:42,2441,-0.2291729,-0.07877499,0.9145317,-0.08970039,0.46987057,9.794976,1.04E-04,0.02439641,0.9811581,0.1916603,-0.3626709,0.43403625,10.816254,0.071502686,0.004547119,0.013687134
2022/12/14 18:42,2480,0.0442471,0.068234384,-0.17787075,-0.08896958,0.52052015,9.792421,6.88E-04,0.027257202,0.98166287,0.18866536,0.07546997,0.6542969,9.628723,0.13648987,-0.024215698,0.048828125
2022/12/14 18:42,2520,-0.021167286,0.040892303,-0.36680984,-0.083800964,0.55667406,9.790479,0.00113445,0.028691698,0.9817997,0.18773594,-0.1232605,0.59085083,9.579636,0.021438599,0.015197754,-0.009750366
2022/12/14 18:42,2560,0.017067194,-0.07515633,0.009681702,-0.088183925,0.55665445,9.7904415,8.63E-04,0.028734319,0.98213273,0.18598087,-0.06340027,0.53219604,9.923813,-0.003067017,0.003479004,0.006225586
2022/12/14 18:42,2600,-0.12430646,-0.052020013,0.18348598,-0.08923165,0.55978596,9.790254,7.94E-04,0.028902663,0.98242784,0.18438983,-0.20166016,0.5262146,10.093201,0.03529358,2.75E-04,0.007293701
2022/12/14 18:42,2641,-0.12735942,-0.06452745,-0.22969818,-0.09450949,0.5819016,9.788915,6.67E-04,0.030063685,0.9828217,0.18209127,-0.12625122,0.5339813,9.576645,0.0491333,0.015197754,0.064819336
2022/12/14 18:42,2680,0.33598202,0.038009107,-0.019132614,-0.091040604,0.5815754,9.788966,7.68E-04,0.030016934,0.9832476,0.17978494,0.20475769,0.6207733,9.966904,-0.030761719,0.002410889,-0.008682251
2022/12/14 18:42,2720,-0.18389207,-0.11800283,-0.1273489,-0.09247759,0.5774887,9.789195,6.08E-04,0.02982595,0.9835541,0.17813292,-0.35728455,0.4693451,9.731674,-0.008392334,-0.012496948,0.007293701
2022/12/14 18:42,2760,-0.118244715,-0.10259032,0.18160343,-0.08163011,0.56729525,9.789888,9.70E-04,0.029218314,0.9841144,0.17511195,-0.108291626,0.5292053,10.17041,-0.02116394,-0.04232788,0.072265625
2022/12/14 18:42,2800,0.19563589,0.145625,0.03823948,-0.07859461,0.58239526,9.789026,0.00112643,0.030154735,0.9847145,0.17154244,0.17901611,0.74946594,9.845398,0.0725708,0.025848389,-0.01828003
2022/12/14 18:42,2841,0.032112733,-0.023951113,-0.20044327,-0.08144472,0.59279877,9.788378,0.001084153,0.030503212,0.98477465,0.17113514,-0.13522339,0.5764923,9.769379,-0.03288269,-0.022094727,-0.10243225
2022/12/14 18:42,2880,-0.21510658,-0.008740187,0.08531189,-0.07226519,0.57101995,9.789745,0.001367677,0.029326914,0.98473626,0.17155914,-0.3291626,0.5112457,10.095001,-0.069107056,-0.04978943,-0.035324097
2022/12/14 18:42,2920,0.2159855,0.07602942,-0.08123016,-0.07682615,0.56314933,9.790166,0.001024335,0.028972663,0.9850135,0.17002329,0.2598114,0.6501007,9.756821,-0.006256104,0.03543091,-0.006561279
2022/12/14 18:42,2960,0.17910935,0.017279685,0.18342781,-0.08032076,0.5567476,9.790504,7.84E-04,0.028681206,0.9850755,0.16971476,0.13531494,0.5052643,10.17041,-0.016906738,-0.017822266,-0.110961914
2022/12/14 18:42,3000,0.0693425,-0.072151065,0.07982254,-0.08242686,0.57012945,9.789717,8.06E-04,0.029372355,0.9849846,0.17012335,0.001846314,0.5663147,9.780151,0.07789612,-7.78E-04,-0.077926636
2022/12/14 18:42,3040,0.21717188,-0.062311947,-0.026298523,-0.08895126,0.5868531,9.788671,6.22E-04,0.030270424,0.9849656,0.17007668,0.17422485,0.5573273,9.976486,0.027832031,0.024780273,-0.07685852
2022/12/14 18:42,3080,0.09945873,0.059041142,0.08162689,-0.113997705,0.60824424,9.787106,-4.15E-04,0.031564794,0.98473424,0.17117824,-0.18849182,0.65489197,9.926804,0.076828,0.078048706,-0.14505005
2022/12/14 18:42,3121,-0.2566659,-0.07014346,-0.3012066,-0.14066763,0.6321933,9.785241,-0.001526991,0.033003896,0.9845854,0.17175546,-0.34172058,0.59443665,9.658051,0.019302368,0.031173706,-0.026794434
2022/12/14 18:42,3160,0.20773429,-0.03150302,0.06751537,-0.15599944,0.6337076,9.784909,-0.002458066,0.033261403,0.9848321,0.1702744,0.052719116,0.631546,10.026764,0.013977051,0.057800293,-0.0438385
2022/12/14 18:42,3200,0.05538945,-0.03268671,-0.10303974,-0.18824762,0.6493599,9.783317,-0.003828497,0.034278676,0.9848396,0.17000371,-0.11009216,0.62138367,9.7999115,0.03741455,0.07911682,-0.066207886
2022/12/14 18:42,3241,-0.29479417,-0.002606154,0.007733345,-0.20721366,0.6472391,9.783074,-0.004787911,0.0343386,0.9847716,0.17036094,-0.5296631,0.6830292,9.986664,-0.04034424,0.003479004,-0.035324097
2022/12/14 18:42,3280,0.001535565,0.033294916,0.28927612,-0.20806727,0.6517589,9.782756,-0.004835702,0.03456737,0.98498034,0.16910185,-0.20106506,0.73928833,10.075836,0.07789612,0.002410889,0.001968384
2022/12/14 18:42,3320,-0.1247503,-0.031092763,-0.24633789,-0.20691904,0.6741059,9.781265,-0.004633982,0.035676155,0.985173,0.16774963,-0.32676697,0.64711,9.719101,0.010787964,-0.03807068,0.023269653
2022/12/14 18:42,3360,0.10920513,0.12588161,0.077100754,-0.18757299,0.6845487,9.7809305,-0.003642037,0.036028948,0.98549074,0.16582128,-0.09692383,0.7955475,9.87233,0.038482666,-0.0710907,0.023269653
2022/12/14 18:42,3400,0.050808206,-0.033456743,-0.32414532,-0.15383041,0.68837506,9.781251,-0.001754191,0.03578439,0.9858709,0.16363074,-0.05860901,0.6608887,9.71492,-0.04034424,-0.10411072,0.006225586
2022/12/14 18:42,3440,-0.16648525,0.07054615,0.11555195,-0.12746489,0.6748892,9.782569,-7.61E-04,0.034993403,0.98609006,0.16248482,-0.3692627,0.666275,9.975281,-0.011581421,-0.031677246,0.006225586
2022/12/14 18:42,3481,-0.18444492,-0.276913,-0.47198677,-0.12052959,0.6623325,9.783515,-6.41E-04,0.034091495,0.9865022,0.16015866,-0.003540039,0.16288757,9.4635315,-0.09680176,-0.017822266,0.086120605
2022/12/14 18:42,3520,0.25451982,-0.001115859,0.38948154,-0.11034876,0.6145211,9.786755,-6.21E-04,0.031843092,0.9870169,0.15742682,0.21372986,0.6351471,10.360748,-0.07443237,-0.007171631,0.050964355
2022/12/14 18:42,3560,-0.12335418,-0.06455654,-0.25837708,-0.112253636,0.6071019,9.787196,-8.57E-04,0.031436373,0.9872745,0.15588455,-0.27348328,0.5746918,9.562881,-0.02330017,0.004547119,0.010482788
2022/12/14 18:42,3600,-0.36706978,-0.1712696,-0.25615597,-0.10554646,0.57007575,9.789497,-8.35E-04,0.029560886,0.9876054,0.15414628,-0.48059082,0.40470886,9.736465,-0.15007019,-0.06576538,0.09144592
2022/12/14 18:42,3640,0.36754817,-0.004199207,0.42885494,-0.08794746,0.51923484,9.7925,-4.47E-04,0.026856655,0.98824066,0.15052871,0.36216736,0.5740967,10.363144,-0.06803894,0.007736206,0.1053009
2022/12/14 18:42,3680,0.28194982,0.040616453,0.49479675,-0.083742276,0.5178771,9.792608,-3.07E-04,0.02675519,0.9885868,0.14825726,0.04194641,0.5309906,10.306885,0.06298828,-0.015701294,-0.007629395
2022/12/14 18:42,3721,-0.14531139,-0.007119179,0.027932167,-0.06815248,0.54927224,9.7910185,6.74E-04,0.028223047,0.9887738,0.1467289,-0.19029236,0.5681,9.83522,0.08215332,-0.060440063,0.005157471
2022/12/14 18:42,3760,0.029223751,-0.04265493,-0.15713882,-0.04512372,0.5726607,9.789812,0.001968461,0.029234452,0.98895556,0.14528714,0.02279663,0.50704956,9.667038,0.04273987,-0.03807068,0.003036499
2022/12/14 18:42,3800,0.12018426,0.010845065,-0.42682934,-0.038907897,0.5741129,9.789753,0.002247506,0.029101092,0.98918927,0.14371039,0.06768799,0.5812683,9.514404,-0.069107056,-0.007171631,-0.014022827
2022/12/14 18:42,3840,0.038942814,-0.08385229,0.4272318,-0.03374164,0.5413735,9.791637,0.002270682,0.027573178,0.98921204,0.14385468,-0.06340027,0.42744446,10.345795,-0.04460144,0.007736206,-0.048110962
2022/12/14 18:42,3880,-0.29456288,-0.06463796,0.14083004,-0.03954639,0.54469657,9.791432,0.00196959,0.027785981,0.9893744,0.14269663,-0.35849,0.4579773,10.024368,0.043807983,-0.001846314,0.005157471
2022/12/14 18:42,3920,0.009609263,0.046902,-0.32304382,-0.042316657,0.5599487,9.79056,0.001896397,0.02857975,0.98957306,0.14115492,-0.020904541,0.5878601,9.586227,0.009719849,0.009872437,0.029663086
2022/12/14 18:42,3961,0.2268218,-0.08251089,-0.21368599,-0.05025987,0.5433698,9.791456,0.00136678,0.027799616,0.9896417,0.14083515,0.12814331,0.4621582,9.75502,-0.08828735,0.024780273,-0.0395813
2022/12/14 18:42,4000,0.04748922,-0.0804804,0.10803223,-0.059969954,0.5084796,9.793275,6.22E-04,0.026106415,0.98970515,0.14071888,0.018600464,0.44960022,10.077042,-0.071243286,0.013061523,-0.025726318
2022/12/14 18:42,4040,-0.007468607,-0.012907892,0.17485714,-0.061245233,0.49068084,9.794174,4.36E-04,0.02521615,0.98969835,0.14092952,-0.10050964,0.46336365,10.036331,-0.015838623,0.002410889,-0.0438385
2022/12/14 18:42,4080,-0.16035531,-0.0930163,0.07983971,-0.06040385,0.48344636,9.79454,4.29E-04,0.024844518,0.9896882,0.1410665,-0.20405579,0.38793945,10.021973,-0.019042969,-0.024215698,-0.015075684
2022/12/14 18:42,4120,-0.1551942,-0.013067067,0.013780594,-0.05602375,0.48513204,9.794483,6.51E-04,0.024898458,0.9897545,0.14059065,-0.10470581,0.5118408,9.845398,0.016113281,-0.005050659,0.02645874
2022/12/14 18:42,4161,-0.055422094,0.017507255,0.050343513,-0.04907131,0.48637313,9.794458,0.001017814,0.024900243,0.98997366,0.13903631,-0.08615112,0.4980774,9.985458,-0.006256104,-0.02848816,0.031784058
2022/12/14 18:42,4200,0.114031464,-0.022230715,0.12344551,-0.035467375,0.4830208,9.794683,0.001794661,0.024627654,0.99020034,0.13745397,0.12574768,0.48191833,10.058487,0.008651733,-0.05618286,0.032852173
2022/12/14 18:42,4241,0.09679308,0.018888533,0.38136482,-3.68E-04,0.50467736,9.793654,0.003524595,0.025497466,0.9901524,0.13760696,0.006027222,0.4873047,10.17041,0.14395142,-0.023147583,-0.021469116
2022/12/14 18:42,4280,-0.21656972,-0.022527397,-0.47579193,-0.004782919,0.56207436,9.790528,0.003676096,0.028433992,0.99021184,0.13659617,-0.047836304,0.61299133,9.365356,0.07789612,-0.008239746,0.027526855
2022/12/14 18:42,4320,0.14096375,0.076610684,-0.14276981,0.001517827,0.56831604,9.790169,0.004040184,0.028676044,0.9903951,0.13519928,0.17481995,0.61180115,9.805298,-0.011581421,-0.012496948,0.006225586
2022/12/14 18:42,4360,0.11789387,0.04892081,-0.16789913,0.003609902,0.5635147,9.790444,0.004054674,0.028456304,0.9904745,0.1346625,0.102996826,0.61299133,9.699951,-0.026504517,0.015197754,-0.03744507
2022/12/14 18:42,4400,-0.14071244,-0.020829797,-0.023934364,-0.004326766,0.54499465,9.791494,0.003521585,0.027574647,0.99052346,0.13450095,-0.21902466,0.4986725,9.953735,-0.05845642,0.014129639,-0.026794434
2022/12/14 18:42,4441,-0.04811672,-0.057719946,-0.003632546,-0.012133374,0.52703595,9.792471,0.002986053,0.026721872,0.99063677,0.13385005,-0.012527466,0.50346375,9.960922,-0.033950806,0.010940552,0.015808105
2022/12/14 18:42,4481,0.024540925,-0.037630916,0.0677166,-0.012941515,0.5139651,9.793164,0.002830247,0.026069062,0.9907855,0.13287787,0.06289673,0.47532654,10.072845,-0.026504517,-0.005050659,0.021133423
2022/12/14 18:42,4520,0.12389155,0.029214144,0.00829792,-0.011164042,0.51086587,9.793328,0.002872501,0.025903197,0.99092543,0.1318618,0.14729309,0.59085083,9.83522,0.002258301,0.002410889,0.017944336
2022/12/14 18:42,4560,0.11508547,0.054560423,0.005249977,0.002235444,0.51471746,9.793133,0.003562221,0.02600978,0.99098957,0.13134092,0.09642029,0.5669098,9.9579315,0.001205444,-0.003982544,-0.005493164
2022/12/14 18:42,4600,0.002077032,-0.025315702,-0.065797806,0.00621785,0.5159603,9.793066,0.003775979,0.026031336,0.99104756,0.13089235,0.007827759,0.50346375,9.8316345,-0.001998901,-0.007171631,-0.004425049
2022/12/14 18:42,4641,-0.0374189,-0.024647772,0.024435997,0.008927054,0.50894874,9.793431,0.00384185,0.025676072,0.99109924,0.1305691,0.001846314,0.5298004,9.903458,-0.020111084,-0.006103516,-0.003356934
2022/12/14 18:42,4680,-0.04511119,-0.017892301,0.045856476,0.009137838,0.50394034,9.793689,0.003799987,0.025424115,0.9912038,0.12982406,-0.03286743,0.51065063,9.963913,0.001205444,-0.007171631,0.003036499
2022/12/14 18:42,4721,0.066440545,0.02499652,-0.005901337,0.011869244,0.50703967,9.793527,0.003946402,0.025564758,0.9912618,0.12934814,0.08085632,0.5519409,9.905258,0.019302368,0.001342773,0.008361816
2022/12/14 18:42,4760,-0.02266081,0.04978174,-0.069579124,0.013264855,0.5167061,9.793019,0.004069942,0.02604646,0.99130297,0.12893215,-0.04244995,0.54415894,9.867538,0.008651733,0.010940552,0.004089356
2022/12/14 18:42,4800,-0.026608877,-0.023881614,-0.023072243,0.005047948,0.518064,9.792954,0.003637413,0.026172848,0.9914283,0.12795171,0.046142578,0.5196228,9.890289,0.006530762,-0.001846314,0.034988403
2022/12/14 18:42,4840,0.16072069,0.013255298,-0.014277458,0.013346146,0.52055925,9.792814,0.004065509,0.026246224,0.99146354,0.12765034,0.12574768,0.5292053,9.87413,-0.005187988,0.004547119,-0.010818481
2022/12/14 18:42,4881,-0.19777527,-0.14335328,-0.095986366,0.006736815,0.5137114,9.793184,0.00353572,0.025845662,0.9916489,0.1263011,-0.15737915,0.3532257,9.7999115,-0.022232056,0.008804321,-0.002304077
2022/12/14 18:42,4920,-0.11403001,-0.066211104,0.24036121,-0.009677014,0.49684694,9.794051,0.002685317,0.025202433,0.99180096,0.12525341,-0.110687256,0.520813,10.136887,0.006530762,0.013061523,0.056289673
2022/12/14 18:42,4960,0.107286066,0.09558123,-0.041835785,-0.008604791,0.5101124,9.79337,0.002904261,0.025962824,0.99180466,0.12506418,0.08982849,0.5800781,9.865158,0.0256958,-0.008239746,0.03817749
2022/12/14 18:42,5001,-0.033982586,-0.046678483,-0.20876217,-0.006000155,0.52118903,9.7927885,0.003018655,0.026412463,0.99180865,0.12493539,-0.091537476,0.47114563,9.634705,0.002258301,0.019454956,0.010482788
2022/12/14 18:42,5040,-0.13288434,-0.08362031,0.028097153,-0.020081282,0.50530547,9.793602,0.002166226,0.025701199,0.99201566,0.12344913,-0.16215515,0.42025757,10.039932,-0.045669556,0.015197754,0.039245605
2022/12/14 18:42,5080,0.001363084,0.016707242,0.0735302,-0.032938182,0.49374264,9.794158,0.001394862,0.025199285,0.99226207,0.12156886,-0.017913818,0.50346375,9.932785,-9.31E-04,0.020523071,0.06161499
2022/12/14 18:42,5121,0.05098949,0.022152096,0.06270504,-0.03435926,0.4933819,9.79417,0.001272308,0.02519232,0.99249405,0.11966316,0.052719116,0.520813,10.015381,-0.003067017,-7.78E-04,0.0541687
2022/12/14 18:42,5162,0.088586025,-0.033905327,-0.058958054,-0.029810484,0.49598905,9.794054,0.001479512,0.025298953,0.9926746,0.118130796,0.07846069,0.5375824,9.850189,0.013977051,0.003479004,0.043502808
2022/12/14 18:42,5200,0.11317201,0.04444027,-0.117025375,-0.022184717,0.5007797,9.79383,0.001889429,0.025487363,0.9928564,0.11654625,0.06529236,0.5184326,9.752029,-0.010513306,0.003479004,0.021133423
2022/12/14 18:42,5241,-0.029181384,-0.083924174,-0.025909424,-0.020241126,0.48706147,9.794526,0.001857073,0.024792891,0.99293804,0.11599971,-0.052627563,0.4011078,9.87532,-0.05419922,0.014129639,-0.003356934
2022/12/14 18:42,5280,-0.1289942,-0.10147208,0.21923733,-0.031043913,0.46107778,9.795755,0.001132212,0.023540985,0.99308604,0.11499872,-0.08615112,0.37776184,10.144669,-0.019042969,-7.78E-04,0.03817749
2022/12/14 18:42,5320,0.15735927,0.009014457,-0.006067276,-0.025312925,0.4614449,9.795754,0.001395887,0.023527691,0.9932261,0.11378215,0.17182922,0.48789978,9.87532,0.021438599,-0.009307861,0.03817749
2022/12/14 18:42,5360,0.08010783,-0.013686091,-0.074427605,-0.007538737,0.46521872,9.795607,0.002323567,0.023615314,0.9931974,0.11399929,0.040145874,0.4579773,9.810089,-0.008392334,-0.017822266,-0.008682251
2022/12/14 18:42,5400,0.014018412,0.027455121,-0.11400604,-0.006122314,0.45920983,9.795891,0.002354148,0.02330308,0.993235,0.1137349,0.047332764,0.51364136,9.800507,-0.033950806,0.006668091,-0.009750366
2022/12/14 18:42,5441,-0.10603333,-0.06599921,0.03776455,-0.012282968,0.44388193,9.796592,0.001948459,0.022562172,0.99327576,0.113535814,-0.13882446,0.3783722,9.936981,-0.03288269,0.017318726,-0.009750366
2022/12/14 18:42,5480,0.06508289,-0.003140211,0.07292843,-0.018135047,0.4300862,9.797198,0.001560263,0.021897553,0.99335194,0.11300441,0.018005371,0.4837036,9.985458,-0.016906738,0.010940552,-0.001235962
2022/12/14 18:42,5520,-0.097754516,-0.01502347,0.0967226,-0.024314344,0.4257087,9.797376,0.001209657,0.021711947,0.99342006,0.112444244,-0.16694641,0.4118805,10.024368,-0.001998901,0.003479004,0.010482788
2022/12/14 18:42,5560,0.017460875,-0.026771575,0.031645775,-0.02842785,0.4264594,9.797332,9.77E-04,0.021774873,0.99350524,0.11167938,-0.016708374,0.37776184,9.911835,0.008651733,0.007736206,0.012619019
2022/12/14 18:42,5601,0.029420223,-0.020581216,0.042416573,-0.033853505,0.4270755,9.797288,6.93E-04,0.021869723,0.9935985,0.11082988,-0.022705078,0.4106903,9.974091,0.018249512,0.008804321,0.01473999
2022/12/14 18:42,5640,-0.036949035,0.07545143,-0.05834198,-0.040880427,0.4414985,9.796622,3.89E-04,0.022608886,0.9937531,0.1092862,-0.11187744,0.49568176,9.856171,0.03741455,0.015197754,0.01687622
2022/12/14 18:42,5680,-0.009482008,0.013245732,-0.14418888,-0.045881703,0.45194146,9.7961235,1.58E-04,0.023166718,0.9939051,0.10777675,-0.0592041,0.45736694,9.811279,-0.008392334,0.011993408,0.021133423
2022/12/14 18:42,5720,-0.064080745,-0.07410401,0.055627823,-0.051382817,0.44390997,9.796463,-1.88E-04,0.022789367,0.99402606,0.10673727,-0.18609619,0.40829468,9.961517,-0.014785767,0.023712158,0.015808105
2022/12/14 18:42,5760,-0.006900981,-0.031618714,-0.004126549,-0.06501362,0.4345238,9.7968025,-9.76E-04,0.022385508,0.99424905,0.10472235,-0.02330017,0.4118805,9.928604,-0.017974854,0.013061523,0.037124634
2022/12/14 18:42,5801,-0.041971177,-0.07308322,0.112054825,-0.06668958,0.42792225,9.797083,-0.00113217,0.022057677,0.9944247,0.103109896,-0.12025452,0.37956238,10.035736,0.016113281,2.75E-04,0.030731201
2022/12/14 18:42,5840,0.07688194,0.10058209,-0.19422626,-0.0697153,0.43597937,9.796706,-0.001278534,0.022480538,0.9945756,0.10154971,0.004837036,0.54776,9.675415,-0.004119873,0.003479004,0.041381836
2022/12/14 18:42,5880,0.099163465,-0.044971585,-0.042678833,-0.06636162,0.42792752,9.797084,-0.001184469,0.022052625,0.99474233,0.09999986,0.03475952,0.36938477,9.863358,-0.05206299,0.026916504,0.013687134
2022/12/14 18:42,5920,0.021158427,-0.032959193,0.042755127,-0.07089687,0.40713772,9.797938,-0.001582206,0.020928051,0.99502,0.09744123,-0.062194824,0.38136292,9.916031,-0.029693604,0.001342773,0.021133423
2022/12/14 18:42,5961,0.10418909,0.11026311,0.06686306,-0.06627885,0.39912114,9.7983,-0.00140611,0.020584617,0.9951493,0.09618793,-0.014923096,0.49209595,9.968109,-0.031829834,-0.008239746,-0.005493164
2022/12/14 18:42,6000,-0.23662016,-0.012753844,0.22684956,-0.068935126,0.3943142,9.798477,-0.00159641,0.020351078,0.9953033,0.09462895,-0.2788849,0.37597656,10.126114,0.016113281,-0.010375977,0.022201538
2022/12/14 18:42,6040,0.14129427,0.073384285,-0.15475464,-0.07091884,0.40526643,9.798016,-0.001695321,0.020912843,0.9955196,0.09219835,0.17662048,0.5124359,9.734665,0.007598877,-0.007171631,0.02859497
2022/12/14 18:42,6080,0.14975286,-0.059307694,0.020809174,-0.05448256,0.40145332,9.798278,-8.78E-04,0.020641789,0.99552494,0.092213064,0.047927856,0.3789673,9.972885,-0.022232056,0.002410889,-0.022537231
2022/12/14 18:42,6120,0.042165447,0.061522186,-0.0686512,-0.053744253,0.39532298,9.798532,-8.87E-04,0.020326156,0.99560803,0.09138234,-0.020904541,0.44181824,9.807098,-0.011581421,0.006668091,-0.01828003
2022/12/14 18:42,6160,0.1250593,0.06015414,0.07432747,-0.042814024,0.39274508,9.798689,-3.48E-04,0.020144148,0.9956299,0.091187574,-0.006530762,0.3825531,10.050705,-0.031829834,-0.027420044,-0.05130005
2022/12/14 18:42,6200,-0.16264398,-0.062460423,0.03676319,-0.040908057,0.38491482,9.799008,-3.20E-04,0.019723268,0.99570894,0.090413645,-0.17292786,0.3430481,9.8394165,0.003326416,-0.01676941,-0.008682251
2022/12/14 18:42,6240,0.042191382,0.06426045,-0.29782486,-0.0325175,0.3782687,9.799298,7.93E-05,0.019360932,0.9957794,0.089713514,-0.020904541,0.44360352,9.611969,-0.057388306,-0.02848816,0.008361816
2022/12/14 18:42,6281,-0.032019876,-0.092081785,0.011446953,-0.013587489,0.34660575,9.800514,9.00E-04,0.01766539,0.99578804,0.089962974,-0.059814453,0.27062988,9.923218,-0.08934021,-0.006103516,-0.035324097
2022/12/14 18:42,6320,-0.23181477,-0.12094596,0.26965714,-0.014871717,0.3099191,9.801741,6.72E-04,0.015807357,0.99578834,0.09030664,-0.25912476,0.19102478,10.248825,-0.05206299,-0.011444092,-0.025726318
2022/12/14 18:42,6360,-0.4041373,-0.11202982,0.1725874,-0.02201234,0.30141434,9.801991,2.72E-04,0.015408204,0.99578196,0.09044749,-0.43569946,0.17785645,10.114746,0.010787964,-0.007171631,0.011550903
2022/12/14 18:42,6400,0.025729774,0.12827843,-0.0453434,-0.020047452,0.31293035,9.801636,4.09E-04,0.015984518,0.9958631,0.08944883,0.059310913,0.49687195,9.81427,0.03315735,-0.013565064,0.07121277
2022/12/14 18:42,6441,0.20720293,0.1726763,-0.061239243,-0.012769748,0.32319582,9.801315,8.11E-04,0.016473535,0.99593353,0.08856871,0.2083435,0.4867096,9.85437,0.016113281,-0.006103516,0.021133423
2022/12/14 18:42,6480,-0.14555934,-0.12235463,-0.11031914,-0.013725956,0.32700625,9.801187,7.83E-04,0.0166713,0.99591285,0.08876373,-0.2603302,0.1880188,9.75502,0.001205444,0.011993408,-0.012954712
2022/12/14 18:42,6520,-0.18045035,-0.012158573,-0.005699158,-0.019476624,0.3186919,9.801451,4.46E-04,0.016275138,0.9959617,0.088290185,-0.2034607,0.29995728,9.999832,-0.03288269,-0.003982544,0.048828125
2022/12/14 18:42,6560,0.010519773,-0.006834745,0.02943325,-0.024229545,0.30927742,9.801742,1.40E-04,0.015818434,0.9960886,0.08693227,-0.001754761,0.30114746,9.935181,-0.012649536,0.015197754,0.06375122
2022/12/14 18:42,6600,-0.043944813,-0.05351311,0.29228878,-0.028459838,0.30211297,9.801954,-2.31E-04,0.015436999,0.9962881,0.08468551,-0.064590454,0.25805664,10.236847,-0.013717651,0.03970337,0.12339783
2022/12/14 18:42,6641,0.5469303,0.21685943,-0.13999653,-0.04474102,0.31331912,9.801541,-8.64E-04,0.016264636,0.9964556,0.082528085,0.48727417,0.50346375,9.726883,0.05873108,-0.025283813,0.04031372
2022/12/14 18:42,6680,-0.121388435,0.038886666,-0.12481594,-0.02369929,0.3270749,9.801166,1.79E-04,0.016721273,0.9964129,0.082956366,-0.15498352,0.3705902,9.823257,-0.010513306,-0.003982544,-0.035324097
2022/12/14 18:42,6720,-0.21146345,-0.05143085,-0.3256998,-0.03965422,0.3188203,9.801386,-6.63E-04,0.01636932,0.99640447,0.083125174,-0.15138245,0.25686646,9.658051,-0.04460144,0.023712158,0.030731201
2022/12/14 18:42,6760,0.27273864,0.23715523,-0.18388367,-0.04496005,0.29426682,9.802132,-0.001042818,0.015143425,0.99645424,0.08275563,0.23886108,0.592041,9.751434,-0.08828735,0.026916504,-0.005493164
2022/12/14 18:42,6801,0.3034868,0.24982685,-0.023007393,-0.05168805,0.2525455,9.803262,-0.001537347,0.013054079,0.996333,0.084544234,0.25024414,0.45437622,10.098587,-0.13302612,-0.003982544,-0.10562134
2022/12/14 18:42,6840,-0.044678558,-0.33298403,0.68246937,-0.037078567,0.22505832,9.803997,-8.68E-04,0.011597847,0.9960089,0.088492975,-0.23098755,-0.11903381,10.461304,0.036346436,-0.019958496,-0.113082886
2022/12/14 18:42,6880,-0.26991814,-0.06373575,-0.109277725,-0.03334816,0.25347131,9.803318,-5.11E-04,0.013025909,0.99572045,0.09149229,-0.28486633,0.21795654,9.766388,0.08003235,-0.02848816,-0.01828003
2022/12/14 18:42,6921,-0.2877444,-0.15663734,-0.22845173,-0.028757727,0.27196714,9.802835,-1.67E-04,0.013944123,0.99554914,0.09320669,-0.2752838,0.14433289,9.75621,0.017181396,-0.025283813,0.021133423
2022/12/14 18:42,6960,0.25996763,0.12950411,-0.025631905,-0.016693363,0.2719744,9.802863,5.54E-04,0.013875858,0.99539906,0.09480421,0.3244629,0.43463135,9.923813,-0.005187988,-0.023147583,0.005157471
2022/12/14 18:42,7000,0.00947533,0.046403766,0.051488876,-0.006943378,0.27274758,9.802854,9.91E-04,0.013876749,0.9952257,0.09660342,-5.49E-04,0.29037476,9.9711,0.003326416,-0.012496948,-0.042770386
2022/12/14 18:42,7041,-0.18153113,-0.09685156,-0.056559563,-0.007172535,0.27294186,9.802849,0.001007073,0.013885844,0.9950395,0.09850137,-0.17712402,0.176651,9.896271,-0.007324219,0.001342773,-0.012954712
2022/12/14 18:42,7080,-0.049480237,-0.04214558,0.085837364,-0.010486938,0.27416977,9.802812,8.59E-04,0.013963938,0.9949369,0.09952302,-0.04185486,0.21136475,10.006409,0.019302368,0.004547119,0.009414673
2022/12/14 18:42,7120,-0.023025371,-0.103735924,-0.100073814,-0.011793831,0.28267863,9.802568,8.42E-04,0.014402024,0.9948884,0.09994446,-0.035873413,0.20718384,9.833435,0.018249512,0.008804321,0.003036499
2022/12/14 18:42,7160,-0.07067068,0.010255605,-0.18960094,-0.023562102,0.27979827,9.802629,2.33E-04,0.014315809,0.99487454,0.10009807,-0.033477783,0.30114746,9.81427,-0.028625488,0.01838684,0.044570923
2022/12/14 18:42,7200,0.13256864,0.1202943,0.09415245,-0.01945512,0.27163476,9.802869,4.41E-04,0.013837408,0.9948214,0.100690976,0.06289673,0.35861206,10.059677,-0.031829834,0.006668091,0.003036499
2022/12/14 18:42,7241,0.05127356,-3.41E-04,0.12984467,-0.016893525,0.26933447,9.802937,5.33E-04,0.013750188,0.9947689,0.101220004,-0.010726929,0.24847412,9.962723,0.007598877,0.01626587,-0.021469116
2022/12/14 18:42,7280,-0.013741199,-0.050593615,0.016866684,-0.021247068,0.26985136,9.802914,3.24E-04,0.013793479,0.9947244,0.10165122,-0.018508911,0.2119751,9.923218,0.010787964,-0.001846314,0.003036499
2022/12/14 18:42,7321,-0.008296874,-0.043789357,-7.78E-04,-0.015943635,0.27393398,9.802811,6.20E-04,0.013978015,0.994659,0.10226289,-0.029876709,0.24847412,9.9387665,0.020370483,-0.01889038,0.004089356
2022/12/14 18:42,7360,0.09644792,0.12274104,-0.13576984,-0.004457372,0.2855301,9.802491,0.001260955,0.014506601,0.99466497,0.10212528,0.12454224,0.40231323,9.799316,0.019302368,2.75E-04,0.015808105
2022/12/14 18:42,7400,0.041771073,0.12792775,-0.12362099,0.003734213,0.29232225,9.802292,0.001711969,0.014808529,0.99465907,0.10213262,0.016204834,0.39692688,9.870544,-0.038208008,-0.009307861,-0.002304077
2022/12/14 18:42,7440,0.08273066,-0.12818375,0.28632545,0.011441766,0.27804956,9.802701,0.00202666,0.014044535,0.9946834,0.10199817,0.13352966,0.18563843,10.192566,-0.004119873,-0.006103516,9.00E-04
2022/12/14 18:42,7480,0.010344187,0.015662372,-0.0201931,0.019086238,0.28095067,9.802607,0.002432333,0.014151482,0.9946607,0.10219553,0.035354614,0.29336548,9.860962,0.022506714,-0.006103516,-0.021469116
2022/12/14 18:42,7521,-0.119415134,0.0656662,-0.1613245,0.015419074,0.28789324,9.802411,0.002274451,0.014524087,0.9947123,0.101642884,-0.17652893,0.3496399,9.787338,-0.005187988,-0.003982544,-0.012954712
2022/12/14 18:42,7560,-0.16314685,0.02660355,0.12567234,0.00452151,0.28774914,9.802426,0.001710301,0.014574507,0.9947864,0.10091943,-0.13522339,0.3137207,10.051895,0.006530762,2.75E-04,0.02645874
2022/12/14 18:42,7600,0.09018947,0.034351826,-0.020210266,0.002691367,0.2968529,9.8021555,0.001605224,0.015004572,0.9948151,0.100574054,0.11557007,0.31671143,9.842407,0.015045166,2.75E-04,0.025405884
2022/12/14 18:42,7640,-0.007242625,-0.1176151,0.026595116,0.008387128,0.2976655,9.802129,0.001947935,0.015059026,0.9948424,0.10028963,0.018600464,0.20179749,9.919617,0.015045166,-0.003982544,0.008361816
2022/12/14 18:42,7681,-0.018745743,-0.018590808,-0.20600128,0.005269238,0.2981707,9.802115,0.001784568,0.015101528,0.99489355,0.09977792,-0.018508911,0.29936218,9.696365,-0.007324219,0.009872437,0.006225586
2022/12/14 18:42,7720,-0.08646347,-0.03393072,0.07709885,-0.00323572,0.28922322,9.802383,0.001294835,0.01469186,0.99498606,0.09891999,-0.04664612,0.25924683,10.055496,-0.02330017,0.005615234,0.029663086
2022/12/14 18:42,7760,0.08496114,4.44E-04,0.05984497,-0.003164768,0.28869718,9.8024,0.00128999,0.014665313,0.99502546,0.098527096,0.0778656,0.26164246,9.942368,0.013977051,0.008804321,0.017944336
2022/12/14 18:42,7801,-0.08447888,-0.014689028,-0.122097015,-0.01021703,0.28963655,9.802367,9.24E-04,0.014749242,0.99511063,0.097654484,-0.088531494,0.25805664,9.798706,-0.016906738,0.006668091,0.029663086
2022/12/14 18:42,7840,0.054940164,0.0423353,0.11548519,-0.007805314,0.28123868,9.802613,0.001001752,0.014311162,0.99513555,0.09746509,0.021591187,0.22573853,10.047104,-0.019042969,-0.013565064,0.027526855
2022/12/14 18:42,7880,0.027143167,-0.015138507,0.03308773,-0.002228169,0.2804696,9.802638,0.001276193,0.014244831,0.99516875,0.097132236,0.030578613,0.28797913,9.936981,0.015045166,0.001342773,0.009414673
2022/12/14 18:42,7923,-0.037504226,-0.017828494,-0.051003456,-0.003121617,0.28306535,9.802564,0.001232723,0.014381964,0.99524075,0.096371725,-0.034072876,0.2341156,9.885498,-0.011581421,-0.006103516,0.005157471
2022/12/14 18:42,7960,-0.08764757,-0.015742421,0.08246994,-0.005605163,0.27869463,9.802688,0.00100156,0.014192631,0.9953531,0.09523527,-0.12086487,0.3143158,9.989655,0.002258301,0.008804321,0.004089356
2022/12/14 18:42,8000,-0.004748812,-0.027174622,0.06301594,-0.014761746,0.28045902,9.8026285,6.04E-04,0.014307935,0.995408,0.094646,0.005432129,0.24847412,10.014786,0.015045166,-7.78E-04,0.027526855
2022/12/14 18:42,8041,3.40E-04,-0.06398398,0.03677082,-0.012681247,0.28940383,9.80237,7.40E-04,0.014752691,0.99548244,0.093789466,-0.024490356,0.23770142,9.919022,0.048065186,-7.78E-04,0.027526855
2022/12/14 18:42,8080,0.1645227,0.035710096,-0.14160347,-0.007851238,0.30373523,9.801942,0.001047101,0.015457795,0.9955145,0.09333194,0.17242432,0.34603882,9.704742,0.016113281,0.004547119,0.027526855
2022/12/14 18:42,8121,0.1816316,-0.02247712,-0.013566017,0.005995687,0.30090767,9.802031,0.001733604,0.015248645,0.9955353,0.09313412,0.13471985,0.2855835,9.95134,-0.03288269,0.002410889,-0.0395813
2022/12/14 18:42,8160,-0.12377559,-0.07982296,0.15044117,0.001111248,0.291659,9.802312,0.001442222,0.014802129,0.995539,0.09317108,-0.18251038,0.22692871,10.002823,0.012924194,0.001342773,-0.023605347
2022/12/14 18:42,8200,-0.018789912,-0.047505915,0.03853321,-0.003563369,0.29453725,9.802226,0.001210194,0.014971179,0.99558884,0.092613764,-0.002349854,0.24847412,9.963318,0.024642944,-0.019958496,0.004089356
2022/12/14 18:42,8241,0.036501322,-0.08066067,-0.062397957,0.006851461,0.300407,9.802046,0.001761433,0.015220692,0.9956163,0.0922681,-0.013717651,0.21435547,9.865158,0.019302368,-0.014633179,-0.008682251
2022/12/14 18:42,8280,0.07935591,0.024045765,-0.02577877,0.015664214,0.30149108,9.802002,0.002210208,0.015234835,0.99563813,0.092020325,0.09880066,0.33467102,9.91304,0.003326416,-0.01676941,-0.011886597
2022/12/14 18:42,8321,0.14073502,0.049475938,0.020648003,0.028671464,0.30578178,9.80184,0.00297901,0.015406583,0.99565107,0.091829546,0.14608765,0.3496399,9.951935,0.001205444,-0.014633179,-0.04597473
2022/12/14 18:42,8360,-0.06201799,-0.057496756,-0.0517025,0.034223072,0.30438948,9.801866,0.003159575,0.015296322,0.99567413,0.09159172,-0.04185486,0.20118713,9.822647,-0.007324219,-0.008239746,-0.054489136
2022/12/14 18:42,8400,-0.07908151,-0.002316296,0.08149433,0.029974157,0.2950381,9.802165,0.002896607,0.014841902,0.9957034,0.09135655,-0.05680847,0.28797913,10.034546,-0.008392334,-0.008239746,-0.02999878
2022/12/14 18:42,8441,0.004906237,0.100773126,-0.0801239,0.031847652,0.29956627,9.802022,0.003014901,0.01506275,0.9956873,0.091491975,0.002441406,0.3933258,9.832825,0.002258301,-7.78E-04,-0.035324097
2022/12/14 18:42,8480,-0.23211136,-0.07911837,-0.013364792,0.021812936,0.29622862,9.802151,0.002488684,0.014940226,0.9956973,0.09141938,-0.25793457,0.19760132,9.9579315,-0.024368286,0.004547119,-0.016143799
2022/12/14 18:42,8520,-0.028921288,0.028537959,0.15910721,0.009694788,0.28665718,9.802455,0.001828876,0.01451057,0.995704,0.09143145,0.03955078,0.33647156,10.105164,1.37E-04,-0.005050659,0.024337769
2022/12/14 18:42,8560,0.10495719,0.10944995,-0.058156013,0.01696292,0.301412,9.802002,0.002274789,0.015224873,0.9956441,0.09195557,0.09402466,0.45378113,9.761597,0.034225464,0.015197754,-0.011886597
2022/12/14 18:42,8601,-0.1728081,-0.008998364,-0.0852108,0.007573465,0.3030087,9.801965,0.001815553,0.015348811,0.9955829,0.092606105,-0.23278809,0.26524353,9.93338,-0.0488739,0.007736206,-0.007629395
2022/12/14 18:42,8640,-0.044995867,-0.046121,0.17825413,-0.005169596,0.28937882,9.802378,0.001102437,0.014716942,0.9956043,0.09248978,0.045532227,0.29096985,10.018387,0.012924194,0.014129639,0.027526855
2022/12/14 18:42,8680,0.0575415,0.035241753,-0.01143074,-0.003871542,0.29823413,9.802114,0.001219027,0.015159816,0.995543,0.09307416,0.07846069,0.3035431,9.929794,0.020370483,0.004547119,0.01473999
2022/12/14 18:42,8720,-0.038400006,0.018262029,-0.07920742,-0.005776907,0.3065236,9.801857,0.001171124,0.015589111,0.9954797,0.09367888,-0.0657959,0.30714417,9.840012,0.003326416,0.019454956,-0.001235962
2022/12/14 18:42,8761,-0.062871374,0.007127076,-0.033726692,-0.017960614,0.30520487,9.801883,5.50E-04,0.015580225,0.9954573,0.0939241,-0.08554077,0.3322754,9.859772,-0.004119873,0.02798462,0.021133423
2022/12/14 18:42,8800,0.002996288,0.026091158,0.009041786,-0.025080932,0.3004994,9.802012,1.71E-04,0.015375342,0.9954283,0.09426581,-0.010131836,0.32748413,9.944763,-0.028625488,2.75E-04,0.019012451
2022/12/14 18:42,8841,-0.006879875,-0.05229661,0.1397152,-0.02448593,0.29492906,9.802184,1.87E-04,0.015089496,0.99535877,0.095043354,0.014419556,0.2227478,10.105774,0.007598877,-0.006103516,0.027526855
2022/12/14 18:42,8880,0.061767753,-0.040267587,-0.12259674,-0.02193541,0.29868647,9.802076,3.47E-04,0.015267614,0.9952745,0.0958933,-0.015518189,0.24908447,9.85199,0.008651733,-0.003982544,0.02645874
2022/12/14 18:42,8920,0.12052311,0.016659617,-0.101213455,-0.017907297,0.29474285,9.802204,5.41E-04,0.015047403,0.9952243,0.09644619,0.10958862,0.31791687,9.808884,-0.025436401,0.010940552,0.007293701
2022/12/14 18:42,8961,-0.04686891,-0.00427562,0.10405064,-0.015951207,0.28464228,9.8025055,6.03E-04,0.01452451,0.99514794,0.097310245,-0.071777344,0.2849884,10.040527,-0.029693604,0.008804321,-0.009750366
2022/12/14 18:42,9000,-0.03245955,-0.026732475,0.11693287,-0.021083191,0.28023198,9.802623,3.33E-04,0.014325845,0.99506974,0.09813719,0.021591187,0.21736145,10.013596,0.011856079,2.75E-04,0.008361816
2022/12/14 18:42,9040,0.026236178,-0.056315392,-0.07647896,-0.019985665,0.28200287,9.802574,4.25E-04,0.014397512,0.9949887,0.09894476,-0.009536743,0.21736145,9.844208,0.004394531,-0.002914429,-1.68E-04
2022/12/14 18:42,9081,0.04351354,0.012670696,-0.062257767,-0.018992767,0.27617782,9.802743,4.40E-04,0.014108969,0.99492466,0.0996275,0.008422852,0.28858948,9.858566,-0.015838623,-0.005050659,0.008361816
2022/12/14 18:42,9120,-0.036874317,-0.002898336,0.04341507,-0.014673729,0.27288038,9.802842,6.55E-04,0.013919096,0.99483585,0.10053595,-0.06997681,0.28738403,9.955536,0.005462647,-0.002914429,0.007293701
2022/12/14 18:42,9160,0.11263423,-0.010700554,-0.071255684,-0.012176064,0.27087593,9.802901,7.82E-04,0.013803975,0.99475867,0.10131184,0.10838318,0.2640381,9.813675,-0.008392334,0.003479004,9.00E-04
2022/12/14 18:42,9201,-0.03150264,-0.032574266,0.13798714,-0.005782719,0.2615172,9.803161,0.001066936,0.013295371,0.99469507,0.10199886,-0.086746216,0.2053833,10.141678,-0.020111084,-0.013565064,-0.020401001
2022/12/14 18:42,9240,-0.06557648,-0.023603082,0.07368183,-0.006120896,0.26179045,9.803153,0.001055141,0.013310682,0.99466467,0.102293074,0.020401001,0.29096985,9.942963,0.04701233,-0.011444092,0.003036499
2022/12/14 18:42,9281,0.12931874,0.10503149,-0.24374676,0.001205607,0.279526,9.802666,0.001532507,0.014170813,0.99455655,0.10321891,0.11077881,0.38974,9.662842,0.007598877,0.001342773,-0.010818481
2022/12/14 18:42,9320,-0.06191207,-0.07887429,-0.0337162,7.09E-06,0.2676638,9.802998,0.001422115,0.013574034,0.9944668,0.10416101,-0.093933105,0.1940155,9.907654,-0.06059265,0.005615234,-0.027862549
2022/12/14 18:42,9361,-0.15672849,-0.06316209,0.2287817,-0.006746201,0.25202695,9.803409,9.26E-04,0.012850952,0.9944286,0.10462202,-0.17173767,0.20957947,10.084824,0.02357483,0.005615234,0.004089356
2022/12/14 18:42,9400,-0.06706445,0.025491238,-0.07416153,-0.014121301,0.26018015,9.803188,6.70E-04,0.01326931,0.9944425,0.10443905,-0.0592041,0.28320312,9.924408,0.012924194,-0.003982544,0.024337769
2022/12/14 18:42,9440,0.022515241,0.028412253,-0.024523735,-0.011542556,0.2638824,9.803093,8.15E-04,0.013443641,0.9944767,0.104089916,-0.009536743,0.30474854,9.984268,-0.003067017,2.75E-04,0.029663086
2022/12/14 18:42,9480,0.017579164,-0.053251684,0.07794571,-0.014359335,0.26659906,9.803016,6.75E-04,0.013597001,0.9945677,0.10319772,0.05630493,0.27960205,10.054886,0.029968262,0.004547119,0.039245605
2022/12/14 18:42,9520,-0.02162988,-0.052912444,-0.0096035,-0.01315407,0.28180638,9.802591,8.04E-04,0.014362752,0.99463916,0.10240115,-0.005935669,0.28320312,9.897476,0.038482666,0.009872437,0.013687134
2022/12/14 18:42,9561,-0.02243378,0.048886985,-0.23117638,-0.020359196,0.2917543,9.802288,4.75E-04,0.014905584,0.9947377,0.10136355,-0.009536743,0.34484863,9.75502,-0.005187988,0.007736206,0.030731201
2022/12/14 18:42,9600,0.14463896,0.0560745,0.07820797,-0.015123379,0.28829387,9.802401,7.19E-04,0.014703146,0.9947706,0.10106829,0.102996826,0.34724426,10.065659,-0.014785767,0.003479004,0.005157471
2022/12/14 18:42,9641,-0.06538348,-0.025847822,-0.10990906,-0.013401326,0.29141238,9.80231,8.10E-04,0.014853175,0.99485046,0.10025594,-0.064590454,0.24009705,9.808289,0.007598877,-0.001846314,0.009414673
2022/12/14 18:42,9680,0.0373568,-0.09035507,0.025355339,-0.013501898,0.2813829,9.802604,7.43E-04,0.014345302,0.99493295,0.099509,0.010223389,0.21257019,9.960327,-0.029693604,2.75E-04,0.011550903
2022/12/14 18:42,9720,-0.033043947,0.010394484,0.08143139,-0.016612038,0.27202356,9.802863,5.04E-04,0.013879328,0.9950433,0.09846829,-0.043640137,0.32389832,9.942368,-0.004119873,0.003479004,0.019012451
2022/12/14 18:42,9761,0.027655052,0.033649564,-0.079229355,-0.015154142,0.27724385,9.802719,6.14E-04,0.014144685,0.9951008,0.09784684,0.030578613,0.31910706,9.790924,0.001205444,0.010940552,0.013687134
2022/12/14 18:42,9800,-0.046962768,0.03345087,-0.03800583,-0.016250897,0.27176297,9.802871,5.18E-04,0.01387246,0.99519545,0.09691883,-0.05860901,0.27661133,9.93219,-0.031829834,0.003479004,0.007293701
2022/12/14 18:42,9840,-0.017805405,-0.024020433,0.0025177,-0.02613022,0.25816664,9.803216,-7.04E-05,0.013231058,0.9953515,0.095395766,0.029968262,0.18502808,9.956726,-0.031829834,0.013061523,0.031784058
2022/12/14 18:42,9880,0.025915388,-0.1261712,0.15304661,-0.02613848,0.24943143,9.803443,-1.32E-04,0.012787468,0.99549335,0.09396486,-0.002349854,0.17964172,10.018387,0.016113281,0.011993408,0.009414673
2022/12/14 18:42,9921,-0.09377915,0.033356488,-0.08925724,-0.034134183,0.25561118,9.803259,-5.35E-04,0.013138474,0.9956811,0.091903396,-0.113082886,0.28379822,9.8471985,-0.003067017,0.019454956,0.007293701
2022/12/14 18:42,9960,-0.022657845,-0.026875198,0.10954666,-0.044948045,0.25240153,9.803299,-0.001116076,0.013024746,0.9957996,0.09062171,-0.03526306,0.26823425,10.063278,-0.003067017,0.001342773,0.037124634
2022/12/14 18:42,10000,0.15670593,0.11083239,-0.025622368,-0.031163469,0.26085272,9.803131,-4.02E-04,0.013389523,0.9959641,0.088747025,0.112579346,0.40530396,9.897476,0.015045166,-0.008239746,-0.006561279
2022/12/14 18:42,10040,0.006299209,0.002322614,-0.0664072,-0.023611093,0.2676291,9.80297,-4.21E-06,0.01369957,0.99606436,0.08756759,-0.041259766,0.24130249,9.892685,-0.005187988,-0.007171631,-0.020401001
2022/12/14 18:42,10081,-0.09284304,-0.0930129,0.12707329,-0.025893934,0.25567418,9.803283,-1.94E-04,0.01310213,0.99620664,0.086027145,-0.08135986,0.16827393,10.0052185,0.004394531,-0.001846314,0.012619019
2022/12/14 18:42,10120,-0.013048533,0.08065382,0.032478333,-0.025486035,0.25993326,9.803171,-1.73E-04,0.013316518,0.9963224,0.08464235,-0.04185486,0.31253052,9.951935,0.013977051,-0.014633179,0.01687622
2022/12/14 18:42,10160,0.15130965,0.04513225,0.07986832,-0.009864803,0.2726883,9.802854,6.63E-04,0.013897859,0.9963905,0.083739705,0.13412476,0.29096985,9.980072,0.04168701,-0.01889038,-0.009750366
2022/12/14 18:42,10200,-0.043439806,0.012501746,-0.34718895,-0.002865908,0.28691927,9.802451,0.001063654,0.014592393,0.99647146,0.08264726,-0.06159973,0.25805664,9.550308,-0.001998901,-0.010375977,-0.006561279
2022/12/14 18:42,10241,0.10690686,0.10797578,0.06031418,0.003830375,0.2713424,9.802895,0.001325126,0.013773719,0.9965611,0.081697196,0.10359192,0.3310852,10.056091,-0.06803894,-0.01676941,-0.026794434
2022/12/14 18:42,10280,-0.25842643,-0.056211293,0.29093742,0.003740039,0.26066464,9.8031845,0.00127026,0.013231908,0.9966041,0.08126249,-0.20046997,0.19342041,10.156052,0.017181396,-0.001846314,-0.006561279
2022/12/14 18:42,10320,0.004224814,-0.082761616,-0.007653236,-0.00323559,0.26603994,9.8030405,9.68E-04,0.013570786,0.99671966,0.079779476,0.09941101,0.20118713,9.99025,0.026763916,-0.005050659,0.012619019
2022/12/14 18:42,10361,0.68252665,0.072749615,0.18936253,0.003417488,0.27504948,9.802792,0.001288058,0.013966815,0.99674046,0.079446584,0.693161,0.38435364,10.159637,0.02357483,0.015197754,-0.066207886
2022/12/14 18:42,10400,-0.33073074,-0.06264973,0.5009651,0.001561913,0.3163534,9.801546,0.001398381,0.016071107,0.99652195,0.081754275,-0.36805725,0.25686646,10.446945,0.18122864,-0.026351929,-0.15142822
2022/12/14 18:42,10440,-0.10566509,-0.17883238,-0.18701458,0.009222966,0.40019414,9.798477,0.002153561,0.02029998,0.9963788,0.08253812,-0.10110474,0.2341156,9.692764,0.23556519,0.003479004,-0.04916382
2022/12/14 18:42,10480,-0.052382328,-0.030673623,-0.8015423,0.003010468,0.4671551,9.795517,0.002128449,0.023730276,0.99627376,0.082891,-0.13761902,0.4286499,9.12355,0.0683136,0.024780273,-0.052368164
2022/12/14 18:42,10521,0.09570561,-0.17193273,-0.2964325,-0.008169479,0.45181972,9.796233,0.001492765,0.022997884,0.9963013,0.082780264,0.23886108,0.33825684,9.787933,-0.11705017,0.024780273,-0.014022827
2022/12/14 18:42,10560,0.10420542,0.095772535,0.42926598,-0.026308212,0.4114119,9.79798,4.17E-04,0.021019533,0.9962811,0.08355859,-0.058013916,0.40530396,10.396072,-0.053131104,0.046081543,-0.11628723
2022/12/14 18:42,10600,-0.38219744,-0.05901611,0.08610344,-0.04601596,0.41132578,9.797912,-5.58E-04,0.02109994,0.99616885,0.084865026,-0.32377625,0.4112854,9.874725,0.03529358,0.010940552,-0.019348145
2022/12/14 18:42,10641,0.04092913,0.101006836,-0.30513763,-0.048330814,0.41594273,9.797706,-6.75E-04,0.021255646,0.99613833,0.08518308,-0.07118225,0.47592163,9.658646,-0.036087036,0.004547119,-0.03425598
2022/12/14 18:42,10680,0.037311397,-0.014666587,-0.12583733,-0.059837405,0.38841775,9.798773,-0.001348664,0.01999601,0.9961463,0.08538665,0.08204651,0.37956238,9.87294,-0.10319519,0.045028687,-0.003356934
2022/12/14 18:42,10720,0.19945702,0.014920443,0.5415859,-0.07424423,0.3499373,9.800123,-0.002228705,0.018105358,0.99608815,0.086461455,0.09761047,0.3610077,10.481064,-0.031829834,0.021591187,-0.101364136
2022/12/14 18:42,10760,-0.32192847,-0.002058268,-0.22640419,-0.08916636,0.35729012,9.799733,-0.003054643,0.018632624,0.99591875,0.08825744,-0.44407654,0.39093018,9.627533,0.0256958,0.04714966,-0.04597473
2022/12/14 18:42,10801,-0.24538022,-0.02413103,0.012540817,-0.09984634,0.34449506,9.800088,-0.003510553,0.01795022,0.99587816,0.08883811,-0.271698,0.3358612,10.073441,-0.06484985,-0.002914429,0.024337769
2022/12/14 18:42,10840,0.103282385,0.05021143,0.034579277,-0.10191227,0.33250684,9.800482,-0.003669723,0.017350502,0.9958879,0.0888416,0.052719116,0.36819458,9.93219,-0.012649536,0.013061523,0.021133423
2022/12/14 18:42,10881,-0.03297875,-0.16956449,-0.003745079,-0.10536759,0.32288852,9.800767,-0.003880597,0.016879383,0.99585193,0.089325026,-0.18370056,0.16348267,9.940567,-0.028625488,0.013061523,0.011550903
2022/12/14 18:42,10920,-0.055827454,0.030492961,-0.12498093,-0.11502439,0.30918476,9.8011,-0.00442496,0.01622955,0.9958135,0.08984703,-0.14001465,0.3065338,9.89209,-0.05632019,0.004547119,0.025405884
2022/12/14 18:42,10961,-0.06972713,-0.048935145,0.28981972,-0.10955495,0.2938844,9.801634,-0.004213651,0.015428201,0.99580616,0.090079695,-0.19747925,0.26045227,10.160233,0.004394531,-0.022094727,0.055221558
2022/12/14 18:42,11000,0.04690764,0.115832925,-0.28755665,-0.10333273,0.30365843,9.801403,-0.003853963,0.015895797,0.995807,0.090004906,-0.031677246,0.429245,9.607773,-0.012649536,-0.010375977,0.044570923
2022/12/14 18:42,11040,0.042845137,0.007644981,-0.03095913,-0.093366735,0.29251057,9.801843,-0.003379414,0.015112956,0.995741,0.09088446,-0.062194824,0.27960205,9.883102,-0.07017517,-7.78E-04,0.007293701
2022/12/14 18:42,11081,0.006706677,-0.07652292,0.10090065,-0.09388085,0.2606927,9.802735,-0.003545369,0.013676587,0.9956701,0.091877714,-0.10050964,0.19281006,10.038727,-0.057388306,-0.002914429,0.015808105
2022/12/14 18:42,11120,0.027514704,-0.012884647,-0.015854836,-0.09218241,0.2383443,9.80332,-0.003550148,0.012537569,0.99558437,0.092962466,-0.095718384,0.2448883,9.89328,-0.0488739,0.004547119,0.006225586
2022/12/14 18:42,11160,-0.06714974,0.09683411,0.016475677,-0.09628013,0.22179645,9.803669,-0.003824604,0.011720688,0.9954975,0.09398222,-0.15377808,0.29397583,10.004608,-0.059524536,-0.006103516,0.019012451
2022/12/14 18:42,11201,-0.19811437,-0.08941446,0.09200382,-0.102213964,0.20659947,9.803941,-0.004193211,0.010979664,0.9954579,0.09447443,-0.2609253,0.15211487,9.987259,-0.016906738,-0.011444092,0.0541687
2022/12/14 18:42,11240,0.36472026,0.0219841,0.12544155,-0.095600106,0.19823068,9.80418,-0.003896512,0.010523395,0.99545264,0.09459456,0.34959412,0.26104736,10.172211,-0.007324219,-0.022094727,0.03605652
2022/12/14 18:42,11280,0.018587798,-0.051427737,0.27824688,-0.06896072,0.21434999,9.804065,-0.002439888,0.011218981,0.9952221,0.09695956,-0.117874146,0.13954163,10.140488,0.09919739,-0.01676941,-0.04916382
2022/12/14 18:42,11320,-0.12941895,0.06838131,-0.36795998,-0.07379951,0.25633985,9.803021,-0.002456178,0.013378209,0.9950368,0.098573804,-0.18849182,0.3065338,9.561691,0.08215332,0.003479004,-0.012954712
2022/12/14 18:42,11361,-0.16047898,-0.03349495,-0.3994751,-0.07387993,0.26722196,9.80273,-0.002418867,0.013828944,0.99493843,0.09950064,-0.24894714,0.23291016,9.571259,-0.038208008,-7.78E-04,0.006225586
2022/12/14 18:42,11400,0.04641868,0.05659692,0.12594604,-0.07398648,0.24184385,9.803389,-0.002513479,0.012648472,0.994849,0.10054403,-0.006530762,0.29336548,10.059677,-0.0488739,0.005615234,-0.008682251
2022/12/14 18:42,11440,-0.14239553,-0.053782046,0.07296085,-0.07903385,0.2267545,9.80371,-0.002834225,0.011911765,0.9947498,0.10160213,-0.19508362,0.17904663,9.994446,-0.029693604,0.01626587,0.006225586
2022/12/14 18:42,11480,0.018208757,0.01575929,-0.12924767,-0.08630594,0.21545477,9.803904,-0.003255472,0.011377963,0.9946995,0.10214149,-0.02508545,0.21017456,9.795715,-0.04034424,0.01626587,0.022201538
2022/12/14 18:42,11520,0.10225548,0.031571478,-0.046733856,-0.092170015,0.19370982,9.804303,-0.003656333,0.010308921,0.99461204,0.10308837,-0.050231934,0.21017456,9.977081,-0.06803894,0.013061523,-0.012954712
2022/12/14 18:42,11561,-0.04472167,0.0396031,0.14396954,-0.09824254,0.17649335,9.804569,-0.004043033,0.009472634,0.9944901,0.104323596,-0.15797424,0.24069214,10.059082,-0.017974854,0.01626587,-0.007629395
2022/12/14 18:42,11600,-0.05298516,0.044269383,0.012207031,-0.104200475,0.18184435,9.80441,-0.004308794,0.009779212,0.9944012,0.10512871,-0.12445068,0.21496582,9.939972,0.017181396,0.008804321,-1.68E-04
2022/12/14 18:42,11640,-0.09166979,-0.03492874,-0.25206947,-0.11193239,0.18283823,9.804307,-0.004686828,0.009875217,0.9943055,0.1060052,-0.22680664,0.15629578,9.845993,-0.038208008,2.75E-04,-0.006561279
2022/12/14 18:42,11681,0.029528946,-0.004979357,0.24695587,-0.11719017,0.1693321,9.804487,-0.005022774,0.009220785,0.9942684,0.10639552,-0.07417297,0.15989685,10.185379,0.018249512,-0.009307861,0.031784058
2022/12/14 18:42,11720,0.09970331,0.062452838,-0.15461254,-0.10719684,0.18895435,9.804244,-0.004323717,0.010305958,0.9941962,0.10700017,-0.02330017,0.28199768,9.71431,0.0448761,-0.008239746,0.003036499
2022/12/14 18:42,11760,-0.016777836,-0.005849615,-0.33214283,-0.10677975,0.19269347,9.804175,-0.004384106,0.010210498,0.9941205,0.10770768,-0.13882446,0.122787476,9.736465,-0.05845642,0.002410889,-0.002304077
2022/12/14 18:42,11801,-0.05018975,-0.13690141,0.2983818,-0.11126514,0.1660226,9.804614,-0.004746846,0.008950544,0.9941038,0.10795856,-0.16993713,0.040786743,10.24823,-0.012649536,-0.005050659,0.015808105
2022/12/14 18:42,11840,0.19914915,0.09205063,-0.16053772,-0.1062431,0.17687093,9.80448,-0.004406004,0.009553257,0.9940334,0.10856767,0.07008362,0.26164246,9.7921295,0.031021118,-0.013565064,-1.68E-04
2022/12/14 18:42,11880,0.002300575,-0.043371007,-0.13097191,-0.09985956,0.18147339,9.804462,-0.004045842,0.009755828,0.9939085,0.10970099,-0.114868164,0.07609558,9.750229,-0.008392334,-0.006103516,-0.021469116
2022/12/14 18:42,11920,-0.028088063,-0.111268565,-0.13124084,-0.09794406,0.16701667,9.804739,-0.004022288,0.009015637,0.99382615,0.11050824,-0.13761902,0.04975891,9.862762,-0.06378174,-0.007171631,-0.004425049
2022/12/14 18:42,11961,0.008833863,-0.017240942,0.22902107,-0.09714658,0.14361449,9.805118,-0.004105573,0.007829408,0.9937204,0.11154165,-0.108291626,0.13235474,10.198547,-0.03501892,-7.78E-04,-0.017211914
2022/12/14 18:42,12000,-0.046456955,0.11868614,0.12018585,-0.09600104,0.14496645,9.805109,-0.004031905,0.007895456,0.9936076,0.11254061,-0.1459961,0.2736206,10.041718,0.03315735,-0.014633179,-0.008682251
2022/12/14 18:42,12040,0.005765803,0.04049158,0.004404068,-0.089023754,0.16590106,9.804843,-0.003488544,0.009023515,0.9934803,0.11359272,-0.06100464,0.17785645,9.959717,0.0448761,-0.014633179,-0.01828003
2022/12/14 18:42,12080,-0.02966334,-0.011456043,-0.20988655,-0.08487583,0.1786381,9.804655,-0.003266054,0.009516147,0.9934205,0.11408142,-0.09751892,0.18203735,9.725693,0.009719849,-0.007171631,-0.007629395
2022/12/14 18:42,12121,0.104075745,-0.029685542,-0.02517128,-0.07813013,0.17494413,9.804779,-0.002927937,0.009320153,0.99327433,0.11537185,0.04194641,0.16468811,9.939972,-0.019042969,-0.005050659,-0.01828003
2022/12/14 18:42,12160,-0.09285861,-0.04416606,0.035147667,-0.074541435,0.16907676,9.804909,-0.002769564,0.009005271,0.9931344,0.11659907,-0.17114258,0.15090942,9.955536,1.37E-04,-0.006103516,-0.017211914
2022/12/14 18:42,12200,0.029479519,-0.041603282,-0.07385826,-0.07863108,0.16807811,9.804894,-0.002977345,0.008980762,0.99306554,0.11718051,-0.018508911,0.1257782,9.914825,-0.005187988,-7.78E-04,0.007293701
2022/12/14 18:42,12241,0.17524867,-0.0411748,-0.07792282,-0.06981179,0.16502504,9.805013,-0.002540136,0.008776013,0.99294966,0.11818392,0.027572632,0.13894653,9.838821,-0.005187988,0.002410889,-0.038513184
2022/12/14 18:42,12280,-0.06261962,-0.027476937,-0.054131508,-0.07375738,0.15074532,9.805214,-0.002863617,0.007926459,0.9928927,0.11871448,-0.12385559,0.16468811,9.942963,-0.06591797,0.003479004,-0.005493164
2022/12/14 18:42,12320,0.14790587,0.001280531,0.3013401,-0.06907617,0.12987192,9.805547,-0.002636091,0.006960812,0.99276274,0.1198611,0.10838318,0.18682861,10.244034,-0.017974854,2.75E-04,0.013687134
2022/12/14 18:42,12360,0.10326936,-0.105299786,-0.014609337,-0.061905075,0.11800897,9.805744,-0.002404558,0.006354842,0.992619,0.12108423,0.028778076,-0.008300781,9.95314,-0.04248047,0.029037476,0.010482788
2022/12/14 18:42,12400,0.14269842,0.00837183,0.18512917,-0.06884607,0.09616973,9.805936,-0.002888618,0.005293468,0.9925768,0.12147016,0.12693787,0.1479187,10.173401,-0.015838623,0.03970337,0.04989624
2022/12/14 18:42,12441,0.52453744,0.3283412,0.2000351,-0.055203054,0.12102708,9.805747,-0.002043615,0.0064672,0.99256074,0.12156123,0.48008728,0.5022583,10.106964,0.07896423,0.023712158,0.04244995
2022/12/14 18:42,12480,0.31972277,0.27181768,-0.18723965,-0.06185201,0.16043465,9.805142,-0.002133797,0.008503439,0.9925155,0.12180355,0.2203064,0.38554382,9.751434,0.073638916,0.054611206,-0.03211975
2022/12/14 18:42,12520,-0.07641605,0.008626014,-0.14513397,-0.09228661,0.17590731,9.804638,-0.003572377,0.009477738,0.9924305,0.1223891,-0.16694641,0.14134216,9.838821,0.009719849,0.09402466,-0.014022827
2022/12/14 18:42,12560,0.107021034,-0.05146846,0.08855152,-0.13025168,0.18406668,9.804057,-0.005438509,0.010130009,0.99236435,0.12280394,-0.034072876,0.16229248,9.974686,0.04273987,0.108932495,-0.01828003
2022/12/14 18:42,12601,-0.077318415,-0.107174456,-0.31884384,-0.16944502,0.19415462,9.803264,-0.00735074,0.010891583,0.9922532,0.123535454,-0.27648926,0.16049194,9.702347,-0.005187988,0.07911682,9.00E-04
2022/12/14 18:42,12640,-0.021526366,0.06745623,0.1481533,-0.19106941,0.19429623,9.802863,-0.008444659,0.011034673,0.9922491,0.12348558,-0.2028656,0.31192017,10.101578,0.04701233,0.03970337,0.05949402
2022/12/14 18:42,12680,-0.14726786,-0.01203002,-0.50233555,-0.20370996,0.23043174,9.801826,-0.008866217,0.012936746,0.99231094,0.12277228,-0.41235352,0.21736145,9.306107,0.09814453,0.045028687,0.07014465
2022/12/14 18:42,12721,-0.00926052,-0.03497106,-0.9788542,-0.2339962,0.23112214,9.801133,-0.010680612,0.012814329,0.99251443,0.12098275,-0.16096497,0.22154236,9.2031555,-0.15539551,0.09295654,0.08505249
2022/12/14 18:42,12760,0.16288981,-0.2025527,0.43254948,-0.2774558,0.14655067,9.801628,-0.013148496,0.009117651,0.99263847,0.12005369,-0.13882446,-0.0579834,10.427185,-0.17350769,0.11000061,0.027526855
2022/12/14 18:42,12800,0.070983976,-0.124413885,0.2827816,-0.31031516,0.11316349,9.801086,-0.015016944,0.007628033,0.99263054,0.120003566,-0.22201538,0.021026611,10.141083,1.37E-04,0.05354309,0.009414673
2022/12/14 18:42,12841,-0.10310444,0.31845987,-0.5001192,-0.32606268,0.12501879,9.80043,-0.015739089,0.008329957,0.992574,0.12033186,-0.47999573,0.5016632,9.35878,0.024642944,0.062072754,-0.001235962
2022/12/14 18:42,12880,-0.6951996,0.4567481,-0.7552242,-0.3654398,0.098544195,9.799343,-0.017894166,0.007234802,0.99252486,0.12050658,-1.102478,0.5268097,9.213928,-0.21185303,0.11639404,0.039245605
2022/12/14 18:42,12920,-0.48618016,0.059251517,0.17001057,-0.42497757,-0.014067394,9.797428,-0.02160445,0.001864908,0.992671,0.11888652,-0.86665344,-0.001708984,10.385895,-0.33755493,0.108932495,0.12767029
2022/12/14 18:42,12961,-0.22554347,0.088504404,0.38537407,-0.466558,-0.09831305,9.795052,-0.024214942,-0.002230121,0.9930039,0.11555064,-0.7056427,0.100631714,10.013596,-0.11065674,0.101486206,0.20117188
2022/12/14 18:42,13000,0.09705037,0.86423975,-0.38035297,-0.5129717,-0.14791709,9.792108,-0.026839057,-0.004597586,0.99346817,0.110813044,-0.4488678,0.7722168,9.680206,-0.2480774,0.13130188,0.19371033
2022/12/14 18:42,13040,0.36855203,0.9368263,0.8727093,-0.55860436,-0.2424081,9.787727,-0.029658202,-0.009232407,0.9937322,0.10738453,-0.25912476,0.5573273,10.8437805,-0.23529053,0.10360718,0.05203247
2022/12/14 18:42,13081,0.011397243,0.5794519,0.64100075,-0.58981806,-0.27085745,9.785149,-0.031528737,-0.01029039,0.9937357,0.10672168,-0.6044922,0.3496399,10.449341,0.081100464,0.06526184,-0.017211914
2022/12/14 18:42,13120,0.011971474,0.51356983,-0.49212742,-0.61008006,-0.22206739,9.785135,-0.032157976,-0.007925248,0.99368656,0.107191876,-0.5937195,0.27841187,9.467117,0.073638916,0.040756226,-0.054489136
2022/12/14 18:42,13160,0.08158696,0.53774357,-0.47798157,-0.6247196,-0.21031277,9.7844715,-0.032844163,-0.007215333,0.993559,0.108211234,-0.5889282,0.32209778,9.482086,-0.020111084,0.045028687,-0.077926636
2022/12/14 18:42,13200,0.0370003,0.50342417,-0.3262148,-0.6326696,-0.22760564,9.783573,-0.033356406,-0.007995497,0.99336267,0.1097909,-0.55122375,0.21316528,9.643097,-0.07229614,-7.78E-04,-0.091781616
2022/12/14 18:42,13240,-0.1550355,0.54954135,-0.17512703,-0.6297124,-0.2554358,9.783077,-0.033385705,-0.009342067,0.99307966,0.11220924,-0.8690491,0.28379822,9.758011,-0.07550049,-0.005050659,-0.13226318
2022/12/14 18:42,13280,-0.5931063,0.7263262,-0.089761734,-0.62600565,-0.27868584,9.7826805,-0.033355165,-0.010466312,0.9928122,0.11446328,-1.1856842,0.43881226,9.858566,-0.057388306,-0.031677246,-0.0630188
2022/12/14 18:42,13321,-0.19391745,0.84577703,0.11529541,-0.6035242,-0.2843175,9.783932,-0.032253515,-0.010865352,0.992782,0.115002364,-0.73617554,0.5268097,10.032745,-0.001998901,-0.064697266,-0.022537231
2022/12/14 18:42,13360,0.063557684,0.8422912,-0.039450645,-0.57592046,-0.27587813,9.785836,-0.03081608,-0.010562913,0.99269414,0.11617728,-0.6368103,0.53637695,10.0112,0.022506714,-0.08494568,-0.12054443
2022/12/14 18:42,13400,-0.4562844,0.80221933,0.41508293,-0.5394615,-0.23630135,9.788949,-0.02875979,-0.008681137,0.99239594,0.119364254,-1.0809326,0.56092834,10.10936,0.1982727,-0.05937195,-0.12693787
2022/12/14 18:42,13440,-0.5613737,1.1552687,-0.7114086,-0.5251798,-0.16284192,9.791224,-0.027604291,-0.004954585,0.99204564,0.12271468,-1.0797424,1.0032501,9.196564,0.052337646,-0.023147583,-0.08113098
2022/12/14 18:42,13481,-0.8393684,1.1549844,0.3893261,-0.5184854,-0.15844633,9.791652,-0.027253518,-0.004682232,0.99163777,0.1260548,-1.3939819,0.92962646,10.4283905,0.005462647,-0.02848816,-0.114151
2022/12/14 18:42,13520,-0.87777996,0.9342619,0.5567484,-0.5136381,-0.10482089,9.792629,-0.026666548,-0.001947619,0.9914129,0.12800619,-1.1605377,0.74168396,10.482849,0.22489929,-0.05618286,0.06587219
2022/12/14 18:42,13560,-0.03921175,0.9374194,0.21858597,-0.49311677,0.005595151,9.794243,-0.024910249,0.003475498,0.99159706,0.12689638,-0.39738464,0.9613495,10.118332,0.2675171,-0.07962036,0.099975586
2022/12/14 18:42,13600,-0.028158337,0.89297926,-0.26141644,-0.47100237,0.094473846,9.794877,-0.023212904,0.00783686,0.99156743,0.1272546,-0.5500183,0.9859009,9.652069,0.07896423,-0.03274536,-0.07685852
2022/12/14 18:42,13641,0.026699156,0.17410573,0.9802542,-0.44208643,0.076481186,9.796382,-0.021846717,0.006801357,0.99123657,0.13010186,-0.33694458,0.19221497,10.996414,-0.104263306,-0.050857544,-0.18339539
2022/12/14 18:42,13680,-0.41894135,0.2959045,0.328187,-0.45347884,0.041101668,9.796073,-0.02291841,0.00490847,0.99039805,0.13624364,-1.046814,0.39093018,10.11235,-0.12876892,0.08230591,-0.31228638
2022/12/14 18:42,13720,-1.36739,-0.34587076,1.1404095,-0.491738,-0.05415471,9.794164,-0.02521791,8.21E-04,0.98958623,0.14171271,-2.1230164,-0.77923584,11.344772,-0.26724243,0.059936523,-0.18339539
2022/12/14 18:42,13761,-1.0596884,-0.5746489,1.5291586,-0.51217157,-0.11565661,9.792583,-0.026695687,-0.002131048,0.9895186,0.1419006,-1.1904755,-0.69602966,11.345963,0.0917511,-0.085998535,0.17880249
2022/12/14 18:42,13800,1.1761559,-0.42415023,0.3403511,-0.4699645,-0.026515225,9.795346,-0.023466818,0.002855714,0.990063,0.1386231,0.77098083,-0.4225006,10.257202,0.38575745,-0.10624695,0.11274719
2022/12/14 18:42,13840,1.3805134,-1.2820147,-0.6177664,-0.404319,0.10748536,9.797722,-0.019647332,0.008317537,0.9899022,0.14013708,0.9272003,-1.2514801,9.392899,0.24194336,-0.11582947,-0.15888977
2022/12/14 18:42,13881,0.8043058,-1.3209705,-0.43469906,-0.36826244,0.1878036,9.797934,-0.017199425,0.012190495,0.98928654,0.14445677,0.38012695,-0.98812866,9.423416,0.3005371,0.002410889,-0.18551636
2022/12/14 18:42,13920,0.20654666,-1.0608678,-1.2426758,-0.37825108,0.27415568,9.795517,-0.017000174,0.01669222,0.9886271,0.14848858,-0.28427124,-0.7558899,8.867371,0.15032959,0.03224182,-0.17807007
2022/12/14 18:42,13960,-0.33845237,-1.0583295,-0.21339035,-0.38466194,0.31244355,9.794121,-0.01699101,0.018711677,0.98824716,0.15076058,-0.6912842,-0.6397705,9.71492,0.18441772,0.03010559,-0.027862549
2022/12/14 18:42,14000,0.16441864,-0.58934414,-1.198535,-0.39679447,0.3833382,9.791119,-0.017063899,0.022377193,0.9882062,0.1505209,-0.16096497,-0.15913391,8.660263,0.120513916,0.004547119,-0.009750366
2022/12/14 18:42,14041,-0.020385802,-0.733932,-0.2757368,-0.3916767,0.37899113,9.791493,-0.016819231,0.022133563,0.9880804,0.15140814,-0.45845032,-0.3554535,9.825043,-0.03288269,-0.005050659,-0.067276
2022/12/14 18:42,14080,-0.15423417,-0.6281733,-0.24014568,-0.3975649,0.38275632,9.79111,-0.017209385,0.022538409,0.987994,0.1518674,-0.51290894,-0.2106018,9.589813,0.0683136,0.066329956,0.06375122
2022/12/14 18:42,14121,0.48049414,-0.15006167,-0.99052334,-0.4288308,0.36698058,9.790394,-0.018804345,0.021799648,0.9881814,0.15056121,0.15567017,0.22991943,9.276779,-0.23422241,0.040756226,0.09251404
2022/12/14 18:42,14160,0.40304488,-0.15987825,0.9172764,-0.426716,0.24832214,9.794215,-0.019612744,0.015791904,0.98832834,0.15024325,-0.16036987,0.24069214,10.80368,-0.1351471,0.011993408,0.037124634
2022/12/14 18:42,14200,0.44582298,0.021150544,-0.48241997,-0.43016204,0.2322934,9.7944565,-0.019913822,0.015003944,0.98838025,0.14994279,-0.002349854,0.29696655,9.406662,-0.045669556,0.022659302,0.05949402
2022/12/14 18:42,14240,1.2316018,0.38378972,-0.63008404,-0.42298868,0.18621017,9.7957535,-0.019887572,0.012650738,0.98821753,0.15123029,0.708725,0.63334656,9.338425,-0.20227051,0.010940552,-0.16314697
2022/12/14 18:42,14280,-0.5023693,0.18678254,-0.56728077,-0.50592923,0.09837749,9.793097,-0.024690641,0.009022282,0.9871575,0.1575722,-1.5112915,0.21316528,9.237869,-0.24168396,0.44023132,-0.22174072
2022/12/14 18:42,14321,-0.43674868,0.25790706,-0.67393494,-0.62633824,-0.005758549,9.786627,-0.031584878,0.004829835,0.986574,0.16015874,-0.7858429,0.3352661,9.414444,-0.27363586,0.08337402,0.03817749
2022/12/14 18:42,14360,-0.046240985,0.49117017,-0.3041973,-0.61442286,-0.080086984,9.787056,-0.032110106,6.65E-04,0.98624706,0.1621273,-1.0773468,0.027023315,9.569473,-0.19587708,0.19203186,0.02645874
2022/12/14 18:42,14400,0.15747124,0.5279293,-5.73E-04,-0.7168754,-0.18298265,9.778701,-0.037858807,-0.00400697,0.98588526,0.16303657,-0.83732605,0.6650696,10.689957,-0.34394836,0.034362793,0.04777527
2022/12/14 18:42,14440,0.7395542,1.169349,1.3404608,-0.6927218,-0.22706786,9.779517,-0.036762983,-0.005644442,0.98583287,0.1635548,0.052719116,0.9577637,11.187347,0.13009644,-0.121154785,0.10635376
2022/12/14 18:42,14480,-0.27126455,0.87716407,0.15452671,-0.6137509,-0.1138405,9.786763,-0.0318376,-5.57E-04,0.9857703,0.1650545,-1.0683594,0.70996094,10.0967865,0.3431549,-0.1733551,-0.026794434
2022/12/14 18:42,14520,-1.0067117,0.90837234,-0.48465538,-0.5864718,0.05549744,9.788941,-0.029052787,0.007672767,0.98616046,0.16304795,-1.4568176,1.0702972,9.2977295,0.4166565,-0.0945282,0.32260132
2022/12/14 18:42,14560,-0.34763294,1.5879952,-0.34784508,-0.5906469,0.17958322,9.787199,-0.028329948,0.013752213,0.98724836,0.1560417,-1.3790131,1.796936,9.741852,0.15992737,0.038635254,0.48239136
2022/12/14 18:42,14600,0.17905521,1.397324,0.24934387,-0.5704881,0.2486953,9.786883,-0.026960852,0.016761582,0.9889887,0.14454605,0.21133423,1.8029175,10.382904,0.057662964,-0.123291016,0.69970703
2022/12/14 18:42,14641,1.9627501,1.4993327,1.7405729,-0.51466537,0.32333094,9.787797,-0.023763513,0.019913686,0.9902139,0.13607074,1.1049652,1.57547,11.543488,0.2494049,0.052474976,0.13618469
2022/12/14 18:42,14680,0.22237349,0.07306379,0.88031006,-0.5398916,0.4212639,9.782711,-0.024525072,0.025361264,0.9901083,0.1357971,-0.3477173,0.27122498,10.831818,0.1194458,0.087631226,0.023269653
2022/12/14 18:42,14720,0.7084904,-0.38393974,0.4669943,-0.5570195,0.40041623,9.782627,-0.025390029,0.023220439,0.99030775,0.13456137,0.17422485,-0.029846191,10.630096,-0.31837463,-0.024215698,0.076538086
2022/12/14 18:42,14760,0.9709824,-1.1527216,3.5211668,-0.51128864,0.2564774,9.789953,-0.023723032,0.016355874,0.9903489,0.13556856,0.3819275,-1.016861,13.683304,0.0448761,-0.11689758,-0.10882568
2022/12/14 18:42,14800,0.003284425,-1.0415771,0.31761074,-0.45847264,0.5115035,9.782563,-0.019530617,0.029096702,0.98966014,0.1390854,-1.039032,-0.10406494,9.186401,1.0377045,-0.0987854,-0.15995789
2022/12/14 18:42,14841,-1.0096763,-0.6589741,-3.0129032,-0.4254838,0.8124505,9.763672,-0.015621774,0.044127967,0.9888232,0.14155336,-1.3981628,0.07191467,7.0687256,0.4028015,-0.08067322,-0.07473755
2022/12/14 18:42,14880,-1.0863204,-2.1871576,-0.7046375,-0.45656782,0.79461086,9.763735,-0.01719184,0.043502763,0.98839873,0.14449859,-1.6770935,-1.4867249,9.628128,-0.26724243,0.16859436,-0.19404602
2022/12/14 18:42,14920,-1.5702499,-2.1746256,1.2387695,-0.54257303,0.67837214,9.768102,-0.022320895,0.038303997,0.9882417,0.14633167,-2.0027008,-1.3233185,11.189743,-0.039276123,0.085494995,0.07972717
2022/12/14 18:42,14960,0.11766571,-0.9200415,-0.0952692,-0.5219641,0.73267126,9.765303,-0.021040859,0.04080961,0.9887534,0.14233267,-0.09033203,-0.008300781,9.500641,0.32183838,-0.10624695,0.3375244
2022/12/14 18:42,15000,1.3336155,-0.24318773,-1.514122,-0.46103045,0.846091,9.759199,-0.017298922,0.046044268,0.98908293,0.13890852,0.6674347,0.5699005,8.334061,0.1982727,-0.109436035,0.060546875
2022/12/14 18:42,15040,-0.12579536,-1.0198278,-1.3891821,-0.41505086,0.8654591,9.759564,-0.014543214,0.046413098,0.98887336,0.14058383,-0.6445923,-0.22976685,8.5902405,-0.07763672,-0.1179657,-0.059814453
2022/12/14 18:42,15081,-0.55872524,-0.87897474,-0.7366848,-0.37406293,0.7748422,9.768832,-0.013301599,0.041847862,0.9889795,0.14139056,-0.96720886,-0.09329224,9.195969,-0.26724243,-0.11050415,0.006225586
2022/12/14 18:42,15120,-0.34080705,-0.63799894,0.047016144,-0.34084535,0.6565756,9.7787075,-0.012525113,0.035606194,0.98942906,0.14001963,-0.64997864,0.028808594,9.986664,-0.28216553,-0.078552246,0.12979126
2022/12/14 18:42,15160,0.367726,-0.39658278,-0.014159203,-0.30465356,0.561858,9.7858,-0.011460868,0.030523619,0.9900122,0.13715969,0.0491333,0.1832428,9.895081,-0.2054596,-0.08494568,0.09890747
2022/12/14 18:42,15200,-0.040980697,0.03984031,-0.08841801,-0.2788014,0.4823872,9.790811,-0.010740722,0.026310874,0.99030066,0.1360035,-0.2944336,0.5405731,9.817871,-0.19799805,-0.022094727,-0.001235962
2022/12/14 18:42,15241,-0.17859414,0.43458563,-0.102781296,-0.27416724,0.40506062,9.794444,-0.011070731,0.022355042,0.9905655,0.13475059,-0.49136353,0.84043884,9.947159,-0.21824646,-0.048721313,-0.025726318
2022/12/14 18:42,15280,-0.2114093,0.19714922,0.4905634,-0.25529882,0.3383033,9.797488,-0.01057857,0.018848365,0.9906657,0.13458937,-0.51530457,0.4579773,10.463104,-0.10533142,-0.045532227,-0.114151
2022/12/14 18:42,15320,-0.5049604,0.26138943,0.05819893,-0.25375423,0.33030188,9.797801,-0.010523108,0.01845171,0.9904367,0.13632299,-0.7642975,0.67225647,9.818466,0.04701233,-0.01676941,-0.12054443
2022/12/14 18:42,15360,-0.26848143,0.615403,-0.68270016,-0.2353019,0.3617728,9.79715,-0.009076878,0.020136615,0.9901786,0.13805257,-0.5093231,1.0331726,9.1427,0.085357666,-0.097717285,-0.07048035
2022/12/14 18:42,15400,-0.04383287,0.6573508,-1.1285601,-0.19787858,0.3851479,9.797086,-0.007072264,0.020787042,0.98998255,0.139472,-0.16934204,1.0559235,8.771606,-0.04034424,-0.076416016,-0.08432007
2022/12/14 18:42,15441,-0.3277226,0.60947156,-0.59788704,-0.17129406,0.33849794,9.79931,-0.006288648,0.01877868,0.9897537,0.14140505,-0.54164124,0.94758606,9.315689,-0.19055176,-0.074279785,-0.14291382
2022/12/14 18:42,15480,-0.45311195,0.59721565,-0.19971466,-0.15181936,0.27375686,9.801652,-0.00566328,0.014924056,0.9895719,0.14315216,-0.54403687,0.8943176,9.707733,-0.16072083,-0.05618286,-0.04597473
2022/12/14 18:42,15520,-0.17625894,1.1929517,-0.37958813,-0.14446984,0.2037758,9.803469,-0.005800698,0.011339321,0.9895886,0.14336017,-0.33094788,1.4072723,9.57785,-0.29493713,-0.027420044,-0.091781616
2022/12/14 18:42,15560,-0.29967552,1.2515254,0.7770901,-0.1369197,0.083023645,9.805343,-0.006294944,0.005199085,0.989436,0.14474048,-0.4955597,1.3186951,10.816254,-0.31518555,-0.014633179,-0.14930725
2022/12/14 18:42,15600,-0.08028807,1.3565977,1.2230968,-0.13499998,0.024349058,9.805691,-0.006628973,0.002230956,0.9893084,0.14567074,-0.03227234,1.441391,11.059265,-0.057388306,-0.006103516,-0.03211975
2022/12/14 18:42,15641,0.94049037,1.0987335,1.572895,-0.12091341,-0.014180182,9.805894,-0.006204279,1.92E-04,0.98910487,0.14708155,0.8547821,1.0056458,11.836182,-0.23954773,-0.10731506,-0.22494507
2022/12/14 18:42,15680,-0.31352362,0.22673061,2.5255756,-0.06930024,-0.06610184,9.806183,-0.004011273,-0.002784475,0.98800224,0.15436214,-0.60150146,-0.028656006,12.357513,0.006530762,-0.0519104,-0.416687
2022/12/14 18:42,15720,-1.7396694,-1.100803,2.0885477,-0.09259915,-0.03925776,9.806133,-0.004983661,-0.001208435,0.98671633,0.16237192,-2.13797,-1.3975372,12.08577,0.19187927,0.12171936,-0.30056763
2022/12/14 18:42,15760,-2.204765,-2.0899258,0.69980335,-0.15376756,0.13049348,9.804576,-0.006611981,0.009794364,0.9863434,0.16427761,-2.1475525,-1.9709473,10.0914,0.84594727,0.07058716,0.17559814
2022/12/14 18:42,15800,0.3873338,-1.0735936,-3.0720549,-0.23409006,0.44244325,9.793868,-0.008236364,0.02416435,0.9871991,0.157436,0.4537506,-0.5817108,6.754486,0.42837524,0.2303772,0.40249634
2022/12/14 18:42,15840,2.2626429,-0.9680642,-0.749218,-0.28484726,0.37378898,9.795383,-0.011430026,0.021066839,0.9878727,0.15340492,1.9956207,-0.76846313,9.570068,-0.6060028,0.11959839,-0.05769348
2022/12/14 18:42,15881,1.0368899,-2.1920547,2.8626719,-0.2736042,0.16183835,9.8014965,-0.012483478,0.010340166,0.9874746,0.15694287,0.5806427,-2.013443,12.898605,-0.057388306,-0.076416016,-0.15888977
2022/12/14 18:42,15920,0.43069556,-0.9086355,-0.78306484,-0.24165072,0.283821,9.799562,-0.00986974,0.016245775,0.98714715,0.15867957,0.18081665,-0.5098877,8.724319,0.5242462,-0.088134766,-0.017211914
2022/12/14 18:42,15960,0.003720507,-0.33616406,-2.3565273,-0.19542794,0.3852553,9.797132,-0.006674566,0.020995189,0.9867251,0.16089828,-0.32615662,-0.019073486,7.8546143,-0.06803894,-0.101989746,-0.14505005
2022/12/14 18:42,16000,-0.56821865,-0.77459645,-0.13574219,-0.18411529,0.30544883,9.800162,-0.006711461,0.016903318,0.9863384,0.16372502,-0.83013916,-0.50090027,9.956131,-0.1777649,-0.002914429,-0.06941223
2022/12/14 18:42,16040,-0.19087212,-0.8535126,-0.1874094,-0.19087015,0.26495314,9.801212,-0.00738825,0.014922635,0.986354,0.16379401,-0.24176025,-0.5182648,9.770584,-0.029693604,-0.019958496,0.10209656
2022/12/14 18:42,16080,0.30312222,-0.54607815,0.04480648,-0.17100656,0.25014225,9.801968,-0.006538529,0.013999322,0.98667425,0.16197291,0.2592163,-0.14117432,9.884308,0.005462647,-0.055114746,0.1404419
2022/12/14 18:42,16121,0.81277263,0.22555777,-0.5061264,-0.14153466,0.24747236,9.8025055,-0.005104969,0.013611085,0.9870121,0.15998675,0.6668396,0.5112457,9.361176,-0.028625488,-0.05937195,0.09463501
2022/12/14 18:42,16160,0.44398034,0.033675,-0.5939102,-0.103454605,0.2199121,9.803638,-0.003125956,0.011514553,0.98699534,0.1603054,0.2849579,0.06890869,9.41684,-0.13941956,-0.13180542,-0.002304077
2022/12/14 18:42,16200,-0.024434045,-0.3209803,-0.88765717,-0.08397552,0.14532709,9.805214,-0.003030146,0.008003611,0.9868635,0.1613296,-0.18670654,-0.13998413,9.024185,-0.22570801,0.10255432,0.02645874
2022/12/14 18:42,16240,0.007292807,0.37896386,-0.36402988,-0.10799516,0.046440326,9.805945,-0.005056966,0.003217658,0.98712105,0.15986262,-0.0544281,0.4298401,9.643097,-0.25872803,0.011993408,0.17559814
2022/12/14 18:42,16280,0.5763359,1.0497992,-0.3773508,-0.09928059,-0.03299387,9.806092,-0.005262601,-8.71E-04,0.98771226,0.15619229,0.48068237,1.049942,9.556305,-0.20439148,-0.0519104,0.15003967
2022/12/14 18:42,16320,0.37398916,0.8719979,-0.4334221,-0.07975054,-0.09216031,9.805893,-0.004739167,-0.004019289,0.9881356,0.15345846,0.15208435,0.7141571,9.4210205,-0.16072083,-0.017822266,0.04244995
2022/12/14 18:42,16360,-0.20714927,0.5889648,-0.06998062,-0.07213927,-0.15295573,9.805192,-0.004819889,-0.007149838,0.9883653,0.15185402,-0.26332092,0.45677185,9.999222,-0.16711426,-0.025283813,0.056289673
2022/12/14 18:42,16401,-0.15059663,0.81015736,-0.10223007,-0.077451855,-0.18555051,9.804588,-0.005363433,-0.008857057,0.9888677,0.14843668,-0.14421082,0.6926117,9.700546,-0.06271362,0.007736206,0.19584656
2022/12/14 18:42,16440,0.80188376,1.4207647,0.08237934,-0.075268485,-0.2001659,9.804318,-0.005271813,-0.00954485,0.98945445,0.14443336,0.7320709,1.2887573,10.003418,-0.057388306,0.015197754,0.15322876
2022/12/14 18:42,16480,0.07566403,1.2617261,0.12141991,-0.078944616,-0.21336554,9.804011,-0.00552445,-0.01020019,0.9898689,0.14150976,-0.019699097,0.9170532,10.157242,-0.08508301,2.75E-04,0.09358215
2022/12/14 18:42,16520,0.7710815,0.9070949,0.8111496,-0.07052339,-0.21827735,9.8039665,-0.005103032,-0.010524376,0.9902911,0.13851601,0.7775574,0.76683044,10.721085,0.031021118,-0.029541016,0.17027283
2022/12/14 18:42,16560,0.45346537,1.263814,-0.14702034,-0.0597694,-0.19570683,9.804516,-0.004383538,-0.009468311,0.99055153,0.13674337,0.37353516,0.9290314,9.754425,-0.14048767,-0.010375977,0.07759094
2022/12/14 18:42,16600,0.90231514,0.46707413,2.5867481,-0.054918513,-0.323099,9.801172,-0.005024011,-0.01593903,0.99049467,0.13653223,0.87034607,-0.03942871,13.028488,-0.4281006,0.08230591,0.007293701
2022/12/14 18:42,16640,-0.082015365,-0.53955495,3.0286007,-0.11422119,-0.43145412,9.796489,-0.008859953,-0.0209666,0.9898172,0.14051272,-0.44407654,-1.1970215,12.919556,-0.17669678,0.22505188,-0.14823914
2022/12/14 18:42,16681,-0.958274,-1.8659072,3.6344109,-0.16259773,-0.4688033,9.794088,-0.011666316,-0.02245785,0.9891523,0.14469711,-0.92471313,-2.471939,13.463638,0.26112366,0.008804321,0.0541687
2022/12/14 18:42,16720,0.20910752,-1.6338229,0.1376133,-0.14662227,-0.23947166,9.802629,-0.009152932,-0.011010313,0.9895277,0.14363119,0.0712738,-1.613617,9.449158,0.8970947,-0.11050415,0.07333374
2022/12/14 18:42,16760,-0.2595647,-1.1889594,-3.0228043,-0.09965609,0.021439781,9.806121,-0.00450781,0.002457952,0.9895668,0.14398326,-0.5177002,-1.2796173,6.9663696,0.33676147,-0.11903381,-0.09390259
2022/12/14 18:42,16800,-1.2655416,-1.9097837,-1.0636425,-0.088618346,0.010179536,9.806244,-0.004394938,0.001170111,0.98937446,0.1453185,-1.3598633,-1.8931274,9.077454,-0.14474487,0.005615234,-0.05769348
2022/12/14 18:42,16840,-0.15213948,-0.98926854,-0.7505379,-0.10582561,-0.018301517,9.806062,-0.005473807,-1.47E-04,0.9895767,0.14390266,-0.1053009,-0.86961365,9.16066,0.07577515,0.029037476,0.09463501
2022/12/14 18:42,16881,0.51449233,-0.44398353,-1.0323248,-0.104603946,0.012319442,9.806085,-0.005186974,0.001391018,0.98952365,0.14427076,0.43399048,-0.40812683,8.979889,0.06617737,0.005615234,-0.054489136
2022/12/14 18:42,16920,0.23330279,-0.72870135,-0.7047119,-0.12812383,4.77E-05,9.805813,-0.00646028,9.70E-04,0.9889577,0.14805399,-0.007736206,-0.709198,9.33902,-0.13621521,0.14622498,-0.19937134
2022/12/14 18:42,16960,-0.79591525,-0.97443783,0.7689409,-0.17116883,-0.08574671,9.804781,-0.009295139,-0.002981004,0.9881087,0.15344688,-1.0528107,-1.1210022,10.845581,-0.15646362,-0.003982544,-0.1972351
2022/12/14 18:42,17000,-1.2574974,-0.955309,0.52398586,-0.1626497,-0.073559344,9.805025,-0.008778391,-0.002404955,0.98760873,0.15667197,-1.2718658,-0.87020874,10.1362915,0.28988647,-0.062576294,0.07333374
2022/12/14 18:42,17040,-0.33638063,-0.061859854,-1.4220276,-0.16035406,0.02859306,9.805297,-0.007845691,0.00272371,0.9875594,0.15702692,-0.43928528,0.098846436,8.401093,0.16737366,0.011993408,0.121276855
2022/12/14 18:42,17081,0.28362983,0.32510716,-1.5160465,-0.18178283,0.03217349,9.804913,-0.009140256,0.002638787,0.98746306,0.15756321,0.102996826,0.28858948,8.594437,-0.19267273,0.07698059,0.019012451
2022/12/14 18:42,17120,-0.17965727,-0.13579972,-0.09472275,-0.20703758,-0.07358176,9.804188,-0.011288082,-0.002694881,0.98691267,0.16083741,-0.48477173,-0.30158997,10.042328,-0.2810974,0.056747437,-0.09390259
2022/12/14 18:42,17160,-0.37566948,0.16353725,0.34606075,-0.22972941,-0.15958731,9.802661,-0.012885012,-0.006116902,0.9864956,0.16316563,-0.58833313,0.053359985,10.196152,-0.07763672,0.022659302,-0.04171753
2022/12/14 18:42,17200,-0.00635162,0.68926036,-0.026817322,-0.23150732,-0.16331355,9.802557,-0.013024327,-0.00625049,0.98599845,0.16612758,-0.2866516,0.53637695,9.818466,0.020370483,0.002410889,-0.10882568
2022/12/14 18:42,17240,-0.55712444,0.74924827,-0.67649364,-0.23324892,-0.1265628,9.80306,-0.012818753,-0.004333811,0.9853026,0.1702811,-0.76849365,0.61120605,9.126541,0.12902832,-0.019958496,-0.07899475
2022/12/14 18:42,17281,-0.12881702,0.75879264,-1.4644947,-0.22203645,-0.08969099,9.803726,-0.011942669,-0.002542707,0.9848047,0.17323577,-0.2902527,0.64711,8.472321,-0.011581421,-0.046585083,-0.05769348
2022/12/14 18:42,17320,0.02712819,0.5021276,-0.6684952,-0.20393294,-0.12782265,9.803697,-0.011385936,-0.004579097,0.9842128,0.176563,-0.15856934,0.350235,9.286346,-0.17562866,-0.048721313,-0.09817505
2022/12/14 18:42,17360,0.100826144,0.6862427,-0.36654663,-0.19641194,-0.21003911,9.802432,-0.011784348,-0.008725998,0.9834617,0.18052171,-0.05203247,0.560318,9.665237,-0.30986023,0.062072754,-0.124801636
2022/12/14 18:42,17400,0.120201424,0.729064,1.293396,-0.1962639,-0.34745365,9.798528,-0.013130427,-0.015547521,0.9823388,0.18600099,-0.05680847,0.34783936,11.582397,-0.3556671,-0.0987854,-0.21960449
2022/12/14 18:42,17440,-0.1986585,1.388203,2.3113909,-0.13774498,-0.37603042,9.79847,-0.010192545,-0.01684728,0.9806521,0.19476599,-0.477005,1.1307373,11.833786,0.22277832,-0.123291016,-0.28884888
2022/12/14 18:42,17480,-0.60165375,1.8320369,0.088124275,-0.07928468,-0.23395917,9.803538,-0.006368055,-0.010867633,0.97932804,0.20188586,-0.5829468,1.6215515,9.882507,0.21638489,-0.13287354,-0.22920227
2022/12/14 18:42,17521,-0.42523685,0.7125758,0.87093735,-0.042219937,-0.2207637,9.804074,-0.004446809,-0.010562684,0.9780691,0.20796499,-0.47221375,0.44181824,10.888077,-0.15219116,-0.1030426,-0.23132324
2022/12/14 18:42,17560,-0.31811655,-0.22033831,1.9644432,-0.024429759,-0.27124947,9.802868,-0.004187233,-0.013240889,0.9765691,0.21475536,-0.38781738,-0.58410645,11.875092,-0.11491394,0.019454956,-0.32614136
2022/12/14 18:42,17600,-0.9120655,-1.2643967,2.6852045,-0.038602397,-0.32076043,9.801327,-0.005566116,-0.015505695,0.97468966,0.2229543,-1.0480194,-1.6567078,12.736404,1.37E-04,0.03543091,-0.36662292
2022/12/14 18:42,17640,-1.3502176,-1.7910037,1.1853485,-0.06902615,-0.20840019,9.804193,-0.005865279,-0.009534165,0.97322476,0.2295828,-1.3676453,-1.9805145,10.795898,0.62757874,0.04928589,-0.09817505
2022/12/14 18:42,17680,-0.09757992,-1.3796207,-1.6926765,-0.099423714,0.050517183,9.806016,-0.004343397,0.003669707,0.97332704,0.22935162,0.17662048,-1.1802673,7.9461975,0.62864685,0.03756714,0.18305969
2022/12/14 18:42,17721,2.0743985,-0.78738344,-1.7469816,-0.08949564,0.13891996,9.805258,-0.002835067,0.00793452,0.9738289,0.22712617,2.1284943,-0.6894531,8.80452,-0.17669678,-0.014633179,0.027526855
2022/12/14 18:42,17760,1.3573124,-1.2311829,1.3378706,-0.06652584,0.03887029,9.806348,-0.002842442,0.002711684,0.97295374,0.23096676,0.95114136,-1.2251587,11.488419,-0.06591797,-0.03274536,-0.28245544
2022/12/14 18:42,17800,-0.32742465,-1.0164218,0.021191597,-0.042550072,0.11388866,9.805896,-7.37E-04,0.006154895,0.9717017,0.23613003,-0.41355896,-0.8133545,9.598206,0.4677887,-0.10731506,-0.113082886
2022/12/14 18:42,17840,-0.7470865,-0.6424231,-1.9882679,-0.006931725,0.28809378,9.802415,0.003161076,0.014350501,0.971026,0.23852172,-0.81936646,-0.35725403,8.001862,0.3005371,-0.074279785,-0.050231934
2022/12/14 18:42,17880,-1.1100128,-0.8813069,-1.6016045,-0.00643775,0.3405934,9.800732,0.003824183,0.016944988,0.97098595,0.23850483,-1.0791321,-0.53800964,8.413666,0.04701233,0.003479004,0.14471436
2022/12/14 18:42,17921,-0.15773429,-1.0985293,-0.5644684,-0.013210293,0.31936172,9.801439,0.003170527,0.015987663,0.9718913,0.23486516,-0.09631348,-0.7660675,9.427612,-0.071243286,0.017318726,0.28318787
2022/12/14 18:42,17960,0.35611284,-0.7698505,-0.15147781,-0.018235689,0.27688897,9.802724,0.002342695,0.013954122,0.9730884,0.22999729,0.3346405,-0.48773193,9.819061,-0.102127075,0.025848389,0.32366943
2022/12/14 18:42,18000,0.67797035,-0.37156707,0.16031837,-0.006842183,0.23825243,9.803753,0.002389422,0.011916198,0.97436285,0.22465372,0.7153168,-0.0974884,10.042923,-0.05206299,-0.037002563,0.32580566
2022/12/14 18:42,18040,0.3894812,-0.15519923,-0.11272335,0.024433482,0.22260356,9.804092,0.003717457,0.010796453,0.9753331,0.22044258,0.2957306,0.1431427,9.83403,-0.027557373,-0.08067322,0.24165344
2022/12/14 18:42,18080,-0.53666216,-0.21662441,-0.3982935,0.04706952,0.20383295,9.804419,0.004598613,0.0096245,0.9761055,0.2170351,-0.47879028,0.032409668,9.527573,-0.07550049,-0.02848816,0.30555725
2022/12/14 18:42,18121,-0.16961747,0.16115402,-0.44894695,0.055228125,0.16954786,9.805029,0.004535428,0.007658251,0.97772866,0.20968407,0.042541504,0.46276855,9.404266,-0.08828735,0.001342773,0.44830322
2022/12/14 18:42,18160,0.23310971,0.65377975,-0.59976673,0.053302463,0.11937375,9.8057785,0.003732743,0.004913446,0.9793506,0.20207503,0.3531952,0.72732544,9.468918,-0.22996521,0.034362793,0.4099579
2022/12/14 18:42,18200,-0.07426748,0.40461004,0.35583973,0.039424703,0.03054964,9.806523,0.002107306,6.65E-04,0.9807909,0.19504935,-0.11009216,0.37298584,10.458908,-0.19480896,0.024780273,0.42381287
2022/12/14 18:42,18240,0.011507321,0.7022328,0.44248104,0.039798643,-9.27E-04,9.806569,0.001984648,-4.25E-04,0.98240614,0.18674596,0.08024597,0.7111664,10.279343,0.06298828,-0.014633179,0.50050354
2022/12/14 18:42,18280,-0.028955504,0.8718291,-0.8059864,0.039868873,0.036405575,9.806501,0.002331117,0.001464025,0.983975,0.1782852,0.002441406,0.93382263,9.113968,0.015045166,0.013061523,0.5079651
2022/12/14 18:42,18320,-0.40709782,0.87786394,0.14101982,0.02556296,0.017448,9.806601,0.001435058,6.56E-04,0.9855858,0.16916886,-0.38482666,0.85002136,10.187164,-0.06271362,0.040756226,0.6070404
2022/12/14 18:42,18360,-0.3432351,0.9052414,0.2813511,0.002384979,0.03680348,9.806581,4.16E-04,0.001833896,0.9875209,0.15747702,-0.3225708,1.0439606,10.080032,0.12263489,0.075912476,0.74658203
2022/12/14 18:42,18400,0.44184592,1.4810331,0.18678284,-0.018684095,0.1053852,9.806066,-1.73E-04,0.005454295,0.9896584,0.14334024,0.64527893,1.6724243,10.375717,0.17803955,-0.001846314,0.7881317
2022/12/14 18:42,18440,0.2874811,1.793594,1.8483934,0.017287778,0.26158106,9.803145,0.002618353,0.013108264,0.9913223,0.13077252,0.10119629,2.0046234,11.768539,0.7223816,-0.14779663,0.7071686
2022/12/14 18:42,18480,-0.66865677,1.3886409,-0.74336815,0.0974378,0.69431025,9.781555,0.008972492,0.034626145,0.9928595,0.11380066,-0.5548096,2.1129608,9.06369,1.0771179,-0.13394165,0.9777527
2022/12/14 18:42,18521,-0.9230033,0.79048216,-2.6772404,0.17150532,0.941362,9.759857,0.013275367,0.04700581,0.99429893,0.09478289,-0.71162415,1.5485382,7.4093018,-0.008392334,-0.11582947,1.0927887
2022/12/14 18:42,18560,-1.4632208,-2.7073534,2.7452173,0.22242613,0.6496911,9.7825775,0.013836307,0.03218601,0.9964897,0.07603187,-1.4137268,-2.3641968,13.297836,-1.0331726,-0.06790161,1.0565796
2022/12/14 18:42,18600,-1.4997214,-3.7606359,5.226754,0.22839056,0.35686406,9.797493,0.012580701,0.017567031,0.99840593,0.052141353,-1.157547,-3.3793335,14.8007965,-0.10745239,0.059936523,1.4336853
2022/12/14 18:42,18640,-0.5713927,-2.061682,1.3624382,0.29755625,0.45207292,9.791705,0.015706591,0.022700608,0.9993511,0.023138339,-0.20884705,-1.3017731,10.669601,0.7138672,-0.28201294,1.5284882
2022/12/14 18:42,18680,-0.15966168,-0.44731498,-3.094306,0.412272,0.7251555,9.771109,-0.02076542,-0.03716044,-0.99906635,0.007373186,0.33103943,0.37956238,6.5898895,0.66378784,-0.12861633,1.430481
2022/12/14 18:42,18720,-0.7497816,-0.84413725,-3.3479986,0.47214845,0.8124709,9.761524,-0.022644492,-0.04228489,-0.99824536,0.034719553,-0.48417664,-0.16810608,7.0142517,-0.106399536,0.05886841,1.142868
2022/12/14 18:42,18761,-1.5562437,-1.4825246,-0.9194269,0.4272293,0.6762218,9.773975,-0.019740641,-0.03572504,-0.9974486,0.058568306,-1.1964569,-0.92048645,9.206146,-0.37057495,0.27618408,1.0075684
2022/12/14 18:42,18800,-1.6070149,-1.4030037,0.16775799,0.29725313,0.50781345,9.788981,-0.013039271,-0.027034095,-0.9963386,0.08005306,-1.2748718,-0.84207153,10.293716,-0.34501648,0.37631226,1.0011749
2022/12/14 18:42,18840,-1.6261662,-0.90805817,1.3480444,0.16737248,0.38547477,9.797642,-0.005684848,-0.019977009,-0.9943647,0.1039593,-1.4676056,-0.41830444,11.286713,-0.10319519,0.32624817,1.1556396
2022/12/14 18:42,18880,-1.7838066,-0.59084135,0.18272114,0.036755633,0.3745346,9.799426,6.09E-04,-0.019181553,-0.9914357,0.12917773,-1.8057861,-0.20043945,10.003418,0.07789612,0.26660156,1.4411316
2022/12/14 18:42,18920,-1.5612092,-0.9484618,-0.37930202,-0.051417887,0.39642808,9.798499,0.005789415,-0.019546391,-0.9871851,0.15827177,-1.6244202,-0.5996704,9.486267,0.06085205,0.26979065,1.6147766
2022/12/14 18:42,18960,-1.0678759,-0.7992516,-1.1795969,-0.16529483,0.3780302,9.797967,0.011927793,-0.01733331,-0.9816884,0.18932824,-1.1964569,-0.39675903,8.810501,-0.20652771,0.35394287,1.7095795
2022/12/14 18:42,19000,-0.3757541,-0.81613564,0.019637108,-0.27050498,0.26310197,9.799387,0.016415996,-0.010040769,-0.975149,0.22071283,-0.50572205,-0.51527405,10.199142,-0.36099243,0.25914,1.699997
2022/12/14 18:42,19041,-0.5316126,-0.7344818,0.5803242,-0.3590114,0.16967033,9.798608,0.019888382,-0.003809284,-0.9681546,0.24953276,-1.0827332,-0.5290375,10.338013,-0.16072083,0.2772522,1.5838776
2022/12/14 18:42,19080,-0.82584643,-0.5707031,-0.26732922,-0.4546724,0.12796706,9.795268,0.024088893,1.70E-04,-0.96038526,0.2776325,-1.2359619,-0.4524231,9.635315,-0.2054596,0.18243408,1.6850891
2022/12/14 18:42,19120,0.1283021,-0.17721272,0.048872948,-0.49998876,0.06836147,9.793657,0.025356509,0.004415173,-0.95254153,0.3033186,-0.20645142,-0.010696411,10.080032,-0.2054596,0.05567932,1.7149048
2022/12/14 18:42,19160,0.8670875,0.2623125,0.14010334,-0.50249296,0.06138876,9.793575,0.025223158,0.005515278,-0.9434901,0.33039343,0.4842682,0.36938477,10.002823,-0.008392334,0.024780273,1.5263519
2022/12/14 18:42,19201,1.09E-04,-0.17839947,-0.229208,-0.5105395,0.07573997,9.793058,0.025773095,0.005358656,-0.938265,0.3449141,-0.8331299,-0.1776886,9.833435,-0.07229614,0.059936523,1.2515259
2022/12/14 18:42,19240,0.074943244,0.07043827,0.32790756,-0.52433336,0.08622448,9.792243,0.02650425,0.005663427,-0.93071353,0.3647435,-0.2896576,0.23950195,10.233856,0.04273987,0.008804321,1.2941284
2022/12/14 18:42,19280,0.64352506,0.37613344,-0.3359232,-0.51574486,0.14545584,9.791998,0.027146928,0.00317246,-0.92409706,0.38117924,0.11376953,0.5010681,9.633514,0.073638916,-7.78E-04,1.0373993
2022/12/14 18:42,19320,0.8135849,0.6068346,0.026968002,-0.4916716,0.18540595,9.792562,0.026772965,0.001226104,-0.91823226,0.39513448,0.43937683,0.9056854,9.999832,0.043807983,-0.0710907,0.8296814
2022/12/14 18:42,19360,1.3134239,1.0773937,-0.09575653,-0.43709537,0.21782696,9.794482,0.024882853,-0.001106507,-0.91366446,0.40570542,0.9493408,1.3725586,9.825043,-0.02330017,-0.12754822,0.6112976
2022/12/14 18:42,19401,0.6679396,1.6500226,-0.027124405,-0.38722914,0.21002693,9.796751,0.022405896,-0.001641295,-0.91128016,0.41117364,0.20414734,1.9166412,9.850189,-0.11705017,-0.017822266,0.27041626
2022/12/14 18:42,19440,-0.40153462,1.5460079,0.7169533,-0.36539835,0.18000844,9.798187,0.02076167,-6.74E-04,-0.9107253,0.41248992,-0.9013672,1.7328796,10.742035,-0.09147644,-0.03807068,0.13085938
2022/12/14 18:42,19480,-1.3540282,1.0659559,1.5883827,-0.37415513,0.20366243,9.797394,0.021667913,-0.001570448,-0.9103593,0.413248,-1.8213348,1.1858063,11.562042,0.14181519,0.08123779,0.21182251
2022/12/14 18:42,19520,-0.97344923,0.030829132,1.8450794,-0.43102387,0.30447334,9.792441,0.026453024,-0.004969945,-0.9089312,0.4160765,-1.3694305,0.16169739,11.899628,0.24726868,0.06951904,0.29278564
2022/12/14 18:42,19560,-0.3438055,-1.8309616,1.9696426,-0.44597012,0.41488314,9.787715,0.029513605,-0.00971383,-0.9079683,0.41788542,-0.72239685,-1.614212,11.828995,0.32929993,0.078048706,0.31941223
2022/12/14 18:42,19600,-0.07748622,-3.678688,1.0801334,-0.47477126,0.50625986,9.782059,0.032801613,-0.01333599,-0.9078402,0.41781855,-0.47520447,-3.1770172,11.052673,0.29841614,0.057800293,0.41848755
2022/12/14 18:42,19640,1.5886186,-2.7042913,-0.5507965,-0.480856,0.64935035,9.773306,0.03620719,-0.01972616,-0.90629303,0.42063388,1.2755585,-1.760849,9.020004,0.59028625,0.12385559,0.6677551
2022/12/14 18:42,19681,2.3560953,-0.84595203,-3.294053,-0.5123081,0.8157185,9.759229,0.041421864,-0.026496906,-0.90326494,0.42625645,1.5233612,0.050354004,6.7802277,0.1194458,0.16433716,0.2427063
2022/12/14 18:42,19720,-0.07435739,-2.072075,-0.9829321,-0.54527944,0.77629554,9.760656,0.04199436,-0.024113862,-0.90487456,0.4229149,-0.71762085,-1.5178375,9.194183,-0.15219116,0.05886841,0.019012451
2022/12/14 18:42,19760,0.8840113,-2.3082557,-0.32590675,-0.5545165,0.7221997,9.764288,0.041240137,-0.021426713,-0.9051236,0.4226008,0.5447235,-1.3287048,9.352188,-0.028625488,0.021591187,0.29171753
2022/12/14 18:42,19800,1.8999666,-1.25669,-0.20228672,-0.52149874,0.66498727,9.77017,0.03849365,-0.01944784,-0.9047876,0.42367375,1.3701324,-0.49971008,9.966904,-0.22250366,-0.052978516,0.12553406
2022/12/14 18:42,19840,0.77737194,-0.9886085,0.42237854,-0.49239796,0.5934241,9.776286,0.0353235,-0.016769094,-0.9057291,0.42204958,0.0491333,-0.2973938,10.024368,-0.041412354,-0.06895447,0.064819336
2022/12/14 18:42,19880,-0.022535503,-1.2545145,-1.2210703,-0.35340676,0.5768637,9.783288,0.028767616,-0.019067653,-0.90599006,0.4218896,-0.23757935,-0.7235718,8.613586,-0.029693604,-0.61331177,0.24165344
2022/12/14 18:42,19921,0.7743698,-1.1819804,-0.7619953,-0.126941,0.5105813,9.792526,0.016874993,-0.020864524,-0.90595406,0.42252478,0.6464844,-0.6367798,9.133118,-0.26298523,-0.2745514,0.15110779
2022/12/14 18:42,19960,0.0442378,-0.058930606,-0.88237,-0.097265534,0.36939228,9.799209,0.012446648,-0.014984287,-0.9064102,0.42194915,-0.067596436,0.3891449,9.064896,-0.4089203,-0.11264038,0.13725281
2022/12/14 18:42,20000,0.5426069,0.29800934,0.71988297,-0.023048192,0.19017123,9.804779,0.005163731,-0.008290898,-0.9062272,0.42267826,0.5656738,0.45437622,10.850372,-0.4845581,-0.07962036,0.1638794
2022/12/14 18:42,20040,0.5690606,0.4365556,0.88512707,-0.017830027,0.08176631,9.8062935,0.002586212,-0.003393843,-0.9062471,0.4227269,0.6422882,0.54415894,10.630692,-0.055252075,-0.02848816,0.11488342
2022/12/14 18:42,20081,0.8027643,0.06107574,0.06703186,0.03628267,0.097882405,9.806095,4.28E-04,-0.005305251,-0.90663,0.421893,0.775177,0.14732361,9.899872,0.1002655,-0.19892883,0.050964355
2022/12/14 18:42,20120,0.41697958,0.13021873,-0.3961172,0.09838073,0.14545766,9.805078,-0.001432181,-0.008838377,-0.9072404,0.42051715,0.47410583,0.2855835,9.395294,0.13223267,-0.03593445,0.060546875
2022/12/14 18:42,20160,0.39485002,0.4499853,-0.89920235,0.1212322,0.17178242,9.804397,-0.002108694,-0.010553164,-0.9075834,0.41973388,0.3753357,0.6243744,9.176224,-0.04034424,-0.05404663,0.06161499
2022/12/14 18:42,20200,-0.25830552,0.8626236,-0.14765072,0.136796,0.1520774,9.804516,-0.003256445,-0.009863204,-0.9072444,0.42047554,-0.024490356,1.0822601,9.876526,-0.09147644,-0.057235718,0.21182251
2022/12/14 18:42,20240,0.27374026,0.98101366,0.27593708,0.16525707,0.12259513,9.804491,-0.005010131,-0.009218155,-0.90695053,0.42110643,0.40167236,1.105011,10.266174,-0.08721924,-0.045532227,0.22247314
2022/12/14 18:42,20281,-0.04942891,0.97980887,0.69924736,0.1834577,0.11868137,9.804216,-0.005927376,-0.009433422,-0.9065618,0.42192608,0.21253967,1.1151886,10.589996,0.03955078,-0.041259766,0.29278564
2022/12/14 18:42,20320,0.76990664,1.2013787,0.39534283,0.19377552,0.16374187,9.803368,-0.005400785,-0.011754475,-0.90530986,0.4245548,0.9840698,1.3498077,10.366135,0.13967896,0.003479004,0.34710693
2022/12/14 18:42,20360,0.6445551,1.4273341,0.57817173,0.20780881,0.25669503,9.801087,-0.003999388,-0.016359596,-0.9042928,0.4265804,0.8882904,1.6478882,10.427185,0.3005371,-0.022094727,0.30130005
2022/12/14 18:42,20400,1.0151781,0.15521395,0.1720686,0.23421808,0.35460168,9.797438,-0.003076644,-0.021453096,-0.9039903,0.42700326,1.2240753,0.28678894,10.491837,0.061920166,-0.0753479,0.14897156
2022/12/14 18:42,20440,0.826934,-1.4137429,2.164939,0.25687993,0.33182055,9.7976675,-0.004671888,-0.020884063,-0.90509796,0.42466423,1.0852203,-1.1233978,12.08876,-0.069107056,0.07911682,0.13832092
2022/12/14 18:42,20481,0.7680646,-1.2295008,2.1449146,0.22269656,0.2797198,9.80013,-0.004266735,-0.017726373,-0.90622264,0.42240748,1.1923523,-1.0539703,12.329987,-0.18841553,0.10681152,0.10848999
2022/12/14 18:42,20520,1.038469,-2.1180012,3.496604,0.22041582,0.23512769,9.801353,-0.005164614,-0.016385214,-0.9088583,0.41675103,0.94696045,-2.0008698,13.319992,0.393219,-0.10838318,-0.22387695
2022/12/14 18:42,20560,-0.61123073,-2.3137002,-0.411623,0.27493975,0.5118583,9.789422,-0.001324073,-0.032086957,-0.9111481,0.41082576,-0.4315033,-1.6495209,8.699173,1.1058807,-0.17228699,-0.12800598
2022/12/14 18:42,20600,-0.653741,-1.7789356,-4.593134,0.322179,0.8655783,9.763062,0.00306339,-0.047042944,-0.9115223,0.4085396,-0.17951965,-0.8528595,5.326935,0.3889618,-0.06790161,0.08505249
2022/12/14 18:42,20640,0.7509242,-1.4714664,-1.9258261,0.31227937,0.7842265,9.770253,0.001781124,-0.043041024,-0.91211396,0.40766704,1.088211,-0.6972351,8.293961,-0.5271759,0.13450623,-0.025726318
2022/12/14 18:42,20681,0.22349665,-1.685449,0.4841795,0.21859905,0.56247413,9.788065,0.00135537,-0.030752579,-0.91479605,0.40274143,0.15447998,-1.0527649,10.463699,-0.40786743,0.22612,-0.23771667
2022/12/14 18:42,20720,-0.7417462,-1.0478213,0.7376089,0.16778682,0.4510296,9.794836,0.001308754,-0.024508258,-0.9170456,0.39802638,-0.5578003,-0.5595703,10.643265,-0.10958862,-0.007171631,-0.0630188
2022/12/14 18:42,20760,-0.4349736,-0.8365683,0.12838364,0.16889362,0.44085628,9.79528,9.96E-04,-0.024056831,-0.91795856,0.39594483,-0.3052063,-0.41471863,9.848389,0.07789612,0.010940552,-0.007629395
2022/12/14 18:42,20800,-0.84392756,-0.8988211,-0.66563797,0.15465571,0.45583043,9.794829,0.002038253,-0.024421955,-0.91849524,0.39467195,-0.61227417,-0.5140686,9.295929,0.021438599,0.031173706,0.09358215
2022/12/14 18:42,20840,-0.13394183,-0.5848634,-0.5961933,0.14019078,0.43928105,9.795803,0.002284044,-0.02315625,-0.91790456,0.39611846,0.14309692,-0.0867157,9.322861,-0.07550049,0.03756714,0.20436096
2022/12/14 18:42,20881,0.54216456,-0.6083312,-0.42303467,0.12015239,0.3593193,9.799329,0.001654794,-0.019249907,-0.917565,0.3971161,0.61416626,-0.28842163,9.644882,-0.25979614,0.087631226,0.07014465
2022/12/14 18:42,20920,0.30857533,-0.9929416,0.7880173,0.106390685,0.256162,9.802726,1.75E-04,-0.014142619,-0.9186087,0.3949152,0.35559082,-0.73612976,10.773148,-0.17562866,0.042892456,-0.014022827
2022/12/14 18:42,20960,-0.19849953,-0.51268953,-0.086312294,0.062149532,0.23575768,9.803619,0.001790311,-0.012302321,-0.9201059,0.39147243,-0.1855011,-0.1950531,9.731674,0.03741455,0.14089966,-0.004425049
2022/12/14 18:42,21000,0.10747996,0.11570841,-0.54464054,0.02778317,0.22239172,9.804089,0.003108279,-0.010996871,-0.92109793,0.3891632,0.1981659,0.38554382,9.534149,-0.13409424,0.019454956,0.03605652
2022/12/14 18:42,21040,0.4172832,0.52722055,0.29350948,0.030397212,0.18218009,9.804911,0.00216014,-0.009166336,-0.92227423,0.3864214,0.40226746,0.7189331,10.182388,-0.039276123,-0.017822266,-0.056625366
2022/12/14 18:42,21080,0.09994894,0.2855459,-0.41700363,0.046155598,0.18767276,9.804746,0.001483185,-0.009741999,-0.92401147,0.3822378,0.1113739,0.3927307,9.510208,0.001205444,-0.048721313,-0.13226318
2022/12/14 18:42,21120,-0.27145118,-0.021356493,-0.4086771,0.061550643,0.18317713,9.804746,6.21E-04,-0.009833464,-0.92590797,0.37762064,-0.2711029,0.1479187,9.496445,-0.012649536,-0.045532227,-0.101364136
2022/12/14 18:42,21161,-0.3392951,0.25323683,-0.8538437,0.077763155,0.18077026,9.804675,-3.88E-04,-0.010036616,-0.92707944,0.37473038,-0.108291626,0.49388123,9.009232,-0.029693604,-0.06895447,0.015808105
2022/12/14 18:42,21200,0.4330183,0.6283728,-1.0639334,0.108751714,0.16008396,9.80474,-0.002096371,-0.009642504,-0.9276338,0.3733605,0.6345062,0.83625793,8.855392,-0.12876892,-0.08280945,0.010482788
2022/12/14 18:42,21240,1.0366384,0.8525981,-0.41003132,0.15895651,0.09258172,9.804925,-0.005778249,-0.007388143,-0.9287484,0.3705919,1.2570038,0.9679413,9.547913,-0.20227051,-0.10731506,-0.13119507
2022/12/14 18:42,21280,0.41234162,0.9510797,0.016647339,0.20491591,0.029741082,9.804463,-0.009175359,-0.005223142,-0.93104917,0.36474097,0.5549011,1.0433502,9.910049,-0.1745758,-0.07002258,-0.27500916
2022/12/14 18:42,21320,-0.21380064,1.3410642,0.6018324,0.24761419,-0.012373976,9.803515,-0.012011854,-0.003940148,-0.93337154,0.35868892,0.020996094,1.3270721,10.613937,-0.0765686,-0.19572449,-0.20150757
2022/12/14 18:42,21361,-0.1327703,0.79367685,0.52248,0.31407765,0.021399073,9.801596,-0.014588698,-0.006697685,-0.9349393,0.35444424,0.19577026,0.7327118,10.240448,0.12902832,-0.097717285,-0.14505005
2022/12/14 18:42,21400,-0.5509171,-0.39797452,1.295969,0.34352946,0.023695469,9.800602,-0.015987614,-0.007261585,-0.93663913,0.34985533,-0.21781921,-0.51885986,11.460281,-0.15646362,-7.78E-04,-0.14823914
2022/12/14 18:42,21440,-1.1962473,-0.83557314,1.7235765,0.29370156,-0.07200309,9.801987,-0.015321765,-0.001736747,-0.9381295,0.3459412,-0.9043579,-0.98753357,11.784103,-0.35992432,0.13983154,-0.024673462
2022/12/14 18:42,21480,-0.026322484,-1.5431468,3.5329647,0.26873738,-0.23405643,9.800173,-0.016980864,0.006473656,-0.93842405,0.34500727,0.19337463,-2.025406,13.697067,-0.22250366,0.004547119,0.056289673
2022/12/14 18:42,21520,0.08492702,-2.2856987,2.6827793,0.2934122,-0.20090681,9.8002,-0.01757107,0.003104226,-0.9377005,0.34698606,0.55789185,-2.3438416,12.32579,0.5466156,-0.17228699,0.2863922
2022/12/14 18:42,21560,1.7828901,-1.0850351,-1.2004948,0.37780592,0.11376516,9.798709,-0.015996905,-0.012204955,-0.9359685,0.35150832,2.2673492,-0.8450775,8.477112,0.8427582,-0.11689758,0.20436096
2022/12/14 18:42,21601,1.4950651,-0.6691301,-2.3561268,0.4223688,0.33786175,9.791723,-0.014122861,-0.023698369,-0.93600714,0.35089827,1.8860779,-0.3446808,7.7630463,0.33462524,-0.043395996,-0.13865662
2022/12/14 18:42,21640,0.8296589,-1.0559373,-1.1371365,0.41019496,0.38978148,9.790311,-0.012762952,-0.025887268,-0.9379966,0.3454408,1.1187439,-0.6786804,8.94339,1.37E-04,0.11000061,-0.3463745
2022/12/14 18:42,21680,0.300574,-1.4687178,-0.023415565,0.3691065,0.37146962,9.792658,-0.011282695,-0.024209157,-0.940372,0.3390975,0.6668396,-1.1293793,9.954941,-0.029693604,0.087631226,-0.27819824
2022/12/14 18:42,21720,0.069612324,-1.801889,0.50140285,0.35569578,0.36704528,9.793322,-0.010850928,-0.023702972,-0.9423059,0.3337364,0.37174988,-1.5256195,10.474472,0.11198425,-0.01889038,-0.22174072
2022/12/14 18:42,21760,-0.12906557,-1.4247907,-0.35188866,0.3544234,0.43855134,9.790425,-0.009662322,-0.027089372,-0.9433321,0.3306015,0.32925415,-0.77983093,9.397079,0.2920227,0.008804321,-0.017211914
2022/12/14 18:42,21800,0.68446946,-0.5222965,-1.0677795,0.36322147,0.5181051,9.786217,-0.008755946,-0.03106739,-0.9433504,0.33022454,1.1007843,0.1257782,8.996658,0.13648987,-0.03060913,-0.011886597
2022/12/14 18:42,21841,0.91241556,-0.16730386,-0.6220617,0.37037474,0.5573825,9.78379,-0.008280436,-0.03322384,-0.94406027,0.3279906,1.3042908,0.38435364,9.387512,0.092819214,0.078048706,-0.13119507
2022/12/14 18:42,21880,0.29826474,-0.35461462,-0.5322161,0.32253698,0.57660747,9.784369,-0.00573754,-0.033068236,-0.94563144,0.3235038,0.42741394,0.18563843,9.356979,0.008651733,0.11959839,-0.207901
2022/12/14 18:42,21920,0.006859064,-0.45663035,-1.0968008,0.27736148,0.5587386,9.78679,-0.004269574,-0.03153299,-0.94679135,0.32027107,0.26519775,0.18263245,8.809311,-0.13621521,0.06951904,-0.0864563
2022/12/14 18:42,21960,-0.15009108,-0.21221736,-0.26847744,0.2562777,0.45077354,9.7929325,-0.00506199,-0.025958048,-0.94752085,0.3185981,0.13471985,0.22393799,9.747238,-0.34394836,0.062072754,-1.68E-04
2022/12/14 18:42,22000,0.24823217,0.08785403,0.25456524,0.22668484,0.33489618,9.798308,-0.005511444,-0.019873086,-0.9476062,0.3187744,0.49864197,0.5483551,10.182983,-0.22038269,0.08656311,0.074401855
2022/12/14 18:42,22040,0.113774404,0.49397135,-0.13933945,0.19893059,0.29166785,9.800293,-0.004859488,-0.017335162,-0.9474131,0.3195064,0.356781,0.82128906,9.536545,-0.05632019,0.09509277,0.0818634
2022/12/14 18:42,22080,0.3903303,0.53746957,-0.27595043,0.17800415,0.2547389,9.801725,-0.004429901,-0.015215026,-0.94702613,0.32076538,0.61535645,0.76802063,9.740051,-0.14048767,0.020523071,0.10209656
2022/12/14 18:42,22121,0.57662195,0.5893579,0.08621788,0.16954786,0.23831275,9.802288,-0.004268985,-0.01428949,-0.94656384,0.3221716,0.73088074,0.9278412,9.671814,0.06510925,0.052474976,0.11701965
2022/12/14 18:42,22160,0.48791498,0.77590823,-1.2713327,0.16743892,0.26473805,9.801646,-0.003701476,-0.015538261,-0.9458909,0.3240914,0.65545654,1.0283966,8.690796,-0.038208008,-0.005050659,0.09144592
2022/12/14 18:42,22200,0.27722418,0.4539935,-0.45419025,0.17233205,0.22549185,9.802543,-0.004572653,-0.013730093,-0.945595,0.3250241,0.3759308,0.70877075,9.591614,-0.115982056,0.02798462,0.06907654
2022/12/14 18:42,22240,0.21433222,1.0281482,-0.37901688,0.16241167,0.2224891,9.80278,-0.004117077,-0.013429072,-0.9449466,0.32692307,0.49804688,1.3444214,9.333038,0.057662964,0.03224182,0.11807251
2022/12/14 18:42,22280,0.3913846,1.2290394,-0.9421196,0.14363396,0.2397675,9.802667,-0.0029008,-0.013953549,-0.9443952,0.32850367,0.54293823,1.4551544,9.006226,-0.082962036,0.087631226,0.074401855
2022/12/14 18:42,22321,0.43666404,1.2580956,0.69297314,0.10173487,0.19377635,9.804207,-0.001640992,-0.011038085,-0.94406486,0.32957098,0.5028229,1.4797058,10.716293,-0.13835144,0.14196777,0.06587219
2022/12/14 18:42,22360,0.41535392,1.4431609,1.4643364,0.06612568,0.21059112,9.804165,3.80E-04,-0.011248335,-0.9433524,0.33160153,0.5052185,1.7532349,11.325012,0.19720459,0.059936523,0.16920471
2022/12/14 18:42,22400,0.47316366,1.8459564,0.4086542,0.060977943,0.3370122,9.800668,0.002823058,-0.017234828,-0.94215715,0.33471608,0.48786926,2.1147614,10.162033,0.23982239,0.015197754,0.1564331
2022/12/14 18:42,22440,0.44759867,0.5965481,1.8953466,0.049220502,0.35053238,9.80026,0.003658564,-0.017675793,-0.9413933,0.33682758,0.5195923,0.59384155,12.297058,-0.20866394,0.08016968,0.109558105
2022/12/14 18:42,22481,0.33094758,-1.526191,3.7197733,0.010125093,0.26748773,9.802996,0.00411476,-0.013014114,-0.94130343,0.33728564,0.19996643,-1.5100555,13.6701355,-0.036087036,0.13557434,0.06800842
2022/12/14 18:42,22520,-0.052403644,-1.9761634,2.8414917,-0.018126698,0.3017064,9.801991,0.006071089,-0.014166202,-0.94100595,0.33803883,0.09341431,-1.5226288,12.433533,0.41877747,0.007736206,0.2341919
2022/12/14 18:42,22560,0.38601777,-1.1268083,-0.20234776,0.015642583,0.5075683,9.793493,0.008069755,-0.024610495,-0.93985695,0.34058496,0.29273987,-0.530838,9.342621,0.68722534,-0.15951538,0.17453003
2022/12/14 18:42,22600,-0.293531,-1.261553,-2.604683,0.101986684,0.7763981,9.775335,0.008713808,-0.038995545,-0.93846625,0.34305173,-0.14360046,-0.53022766,7.1668854,0.54022217,-0.16163635,0.1638794
2022/12/14 18:42,22641,-0.30390364,-2.026468,-3.0635118,0.124317996,0.8608184,9.768004,0.009199738,-0.043424804,-0.9376928,0.34461832,-0.19148254,-1.2395172,7.010071,-0.05632019,0.04182434,0.09251404
2022/12/14 18:42,22680,0.30611032,-2.0823941,-1.1981859,0.09140207,0.69984525,9.7812195,0.007967455,-0.03511604,-0.9377381,0.34547162,0.48187256,-1.3999329,8.908661,-0.5878906,0.09828186,0.04777527
2022/12/14 18:42,22720,0.36935785,-1.9731231,1.3102322,0.07948359,0.43828797,9.796529,0.003890507,-0.022381196,-0.9386116,0.34422696,0.3855133,-1.5148468,11.435745,-0.5037384,-0.03807068,-0.067276
2022/12/14 18:42,22760,-0.35531873,-1.2620652,0.8663187,0.099554084,0.35325465,9.799779,0.00141528,-0.018662238,-0.93907547,0.34320113,-0.2603302,-0.6685028,10.243439,0.14500427,-0.057235718,0.08930969
2022/12/14 18:42,22800,0.28042483,-0.1118353,-1.3284807,0.13349198,0.397089,9.797699,6.02E-04,-0.021355731,-0.9383087,0.34513816,0.5022278,0.30773926,8.6064,-0.012649536,-0.09239197,0.10423279
2022/12/14 18:42,22840,-0.15684518,-0.32515946,-0.39347744,0.15995012,0.3462769,9.799229,-0.001712789,-0.018958364,-0.938587,0.34451714,-0.14720154,-0.054382324,9.65387,-0.17243958,0.001342773,-0.058761597
2022/12/14 18:42,22881,-0.08256163,-0.33274704,-0.49817467,0.1410293,0.28057232,9.801621,-0.001835653,-0.015907176,-0.938952,0.34367523,0.15567017,-0.013092041,9.315689,-0.18522644,0.08016968,-0.033187866
2022/12/14 18:42,22920,-0.16948661,-0.1690797,0.03490925,0.11549284,0.18344127,9.804254,-0.002481774,-0.010088344,-0.93979126,0.34159112,-0.1280365,-0.025650024,10.233261,-0.28642273,0.03756714,-0.12054443
2022/12/14 18:42,22960,-0.77429676,-0.52001524,0.8641577,0.07960245,0.093048155,9.805885,-0.00220921,-0.005839515,-0.94071907,0.33912918,-0.6619568,-0.40634155,10.736038,-0.06591797,0.08337402,-0.0438385
2022/12/14 18:42,23000,-0.17743605,-0.2709468,-0.3890314,0.051132806,0.096795574,9.806039,-7.82E-04,-0.005526576,-0.9408886,0.33867028,-0.05621338,-0.11364746,9.362366,0.04168701,0.05354309,0.08079529
2022/12/14 18:42,23040,0.49348998,0.20435259,-0.81617355,0.034657117,0.065488644,9.806371,-5.31E-04,-0.003740241,-0.940833,0.33884966,0.62553406,0.20239258,9.1828,-0.22570801,0.03010559,0.021133423
2022/12/14 18:42,23080,0.26018435,0.029071681,0.56149197,0.04163651,-0.023614515,9.806533,-0.002404515,4.18E-04,-0.9414495,0.33714512,0.28375244,-0.03642273,10.522354,-0.16072083,-0.02848816,-0.07048035
2022/12/14 18:42,23120,-0.14389074,0.30878675,0.10384941,0.047876865,-0.038573194,9.8064575,-0.002958996,0.001034876,-0.9421652,0.33513424,-0.06100464,0.38136292,9.763397,0.053390503,-0.009307861,-0.05343628
2022/12/14 18:42,23161,0.011859264,0.6503154,-0.6172066,0.058421213,-0.024456352,9.806445,-0.003223947,1.83E-04,-0.942829,0.3332612,0.076660156,0.62197876,9.415039,-0.036087036,-0.04978943,-0.0864563
2022/12/14 18:42,23200,-0.097007245,0.73268753,-0.23593903,0.07344384,-0.03398713,9.806316,-0.004106891,3.98E-04,-0.94381785,0.33044037,-0.09033203,0.68421936,9.6736145,-0.014785767,-0.01889038,-0.1375885
2022/12/14 18:42,23240,-0.14968106,0.8115567,-0.6740875,0.07260251,-0.026771296,9.806345,-0.003953459,1.33E-04,-0.9450381,0.3269364,-0.095718384,0.81889343,9.294128,-0.047805786,2.75E-04,-0.16314697
2022/12/14 18:42,23280,-0.43235236,0.8746371,-0.34677315,0.06154686,-0.048043348,9.80634,-0.003761804,0.001302465,-0.9462026,0.32355037,-0.3626709,0.8230896,9.592209,-0.090408325,0.025848389,-0.1098938
2022/12/14 18:42,23320,0.2487516,1.0170766,-0.15366554,0.05508716,-0.07795548,9.806186,-0.003936901,0.002861396,-0.9469587,0.32131842,0.3358307,0.96913147,9.802307,-0.106399536,0.007736206,-0.09603882
2022/12/14 18:42,23360,0.5189029,1.5530134,-0.2749653,0.046295673,-0.10189412,9.806011,-0.003888787,0.004176077,-0.94816893,0.31771553,0.5806427,1.4737091,9.623337,-0.08508301,0.078048706,-0.20043945
2022/12/14 18:42,23400,0.9113167,1.7926602,-0.03316307,0.007432932,-0.1359339,9.805705,-0.002519312,0.006467891,-0.95021266,0.31152475,0.8553772,1.6173706,10.078232,-0.1820221,0.085494995,-0.3932495
2022/12/14 18:42,23441,0.044927757,1.1895418,1.967493,-0.006208314,-0.16204685,9.805309,-0.002198793,0.007970716,-0.95307344,0.3026262,-0.016708374,0.82489014,11.961273,0.012924194,0.034362793,-0.38685608
2022/12/14 18:42,23480,0.21437968,-0.28573805,3.1031723,-0.01747041,-0.15645975,9.805387,-0.001489227,0.007887707,-0.95595145,0.29341498,0.12394714,-0.92108154,13.379837,-0.080825806,0.06312561,-0.4710083
2022/12/14 18:42,23520,-1.6262999,-2.2228398,5.1730585,-0.030193739,-0.17644297,9.8050165,-0.001059037,0.009065588,-0.9594034,0.2818897,-1.9667969,-2.5850525,15.003708,0.26538086,0.07484436,-0.40922546
2022/12/14 18:42,23560,-2.5480506,-2.6566467,1.3639221,-0.072280146,0.05774982,9.806213,0.004358385,-0.001804368,-0.960602,0.27788773,-2.5138702,-2.5299835,10.594788,1.0206604,-0.05937195,0.16175842
2022/12/14 18:42,23601,-0.116326004,-1.9586065,-2.3859043,0.006371018,0.41540092,9.797846,0.005579294,-0.02241845,-0.9580436,0.28569,0.17063904,-1.3173218,7.4913025,0.8065338,-0.26922607,0.5622864
2022/12/14 18:42,23640,1.808324,-0.55274355,-3.4116344,0.071747325,0.64853865,9.784919,0.006191492,-0.03270555,-0.9556077,0.29275563,1.9016418,0.1479187,6.5360107,0.23768616,0.029037476,0.27467346
