Timestamp,Milliseconds,linear-x,linear-y,linear-z,gravity-x,gravity-y,gravity-z,rotation-x,rotation-y,rotation-z,rotation-w,acc-x,acc-y,acc-z,gyr-x,gyr-y,gyr-z
2022/12/14 18:35,6,-0.85120106,-0.12367487,0.15156555,0.12242852,0.26813865,9.802219,0.011005339,0.01023724,0.92357457,0.38312414,-0.59191895,-0.011291504,10.440353,-0.043548584,-0.23727417,-0.03425598
2022/12/14 18:35,41,-0.016355067,-0.11300704,-0.00103569,0.14472887,0.29476175,9.80115,0.012663335,0.011497832,0.9241345,0.38168427,0.20355225,0.24668884,9.822052,0.1790924,0.025848389,0.06800842
2022/12/14 18:35,80,0.05359359,0.09738612,-0.756196,0.13975884,0.3382205,9.79982,0.013183506,0.013212832,0.9247337,0.38015687,0.21372986,0.4286499,9.197769,-0.001998901,-0.014633179,0.03605652
2022/12/14 18:35,120,0.34124467,0.1575607,0.23916149,0.14300217,0.3099263,9.800708,0.012737076,0.011862412,0.9252851,0.37887275,0.5345459,0.47831726,10.245224,-0.0765686,0.017318726,0.004089356
2022/12/14 18:35,162,0.06426968,0.026332349,0.24357128,0.130921,0.30689627,9.800972,0.012103872,0.011957297,0.92543244,0.3785305,0.13652039,0.31611633,10.074051,0.040618896,0.03543091,-0.05555725
2022/12/14 18:35,200,-0.35822284,-0.029514223,-0.18236828,0.12203277,0.32815576,9.800399,0.012090048,0.013137002,0.92556053,0.3781785,-0.22261047,0.32748413,9.728088,0.03315735,-0.009307861,0.010482788
2022/12/14 18:35,240,0.16530783,0.14171112,-0.20373154,0.1254981,0.33437228,9.800144,0.012350368,0.013385192,0.92621046,0.37656674,0.3023224,0.47413635,9.703537,-0.004119873,-0.003982544,0.010482788
2022/12/14 18:35,280,0.005354837,-0.035648048,-0.10729885,0.12833422,0.32457298,9.800438,0.012283295,0.012879885,0.9265899,0.37565193,0.09820557,0.2227478,9.776566,-0.04460144,-7.78E-04,-0.012954712
2022/12/14 18:35,320,-0.11905463,-0.058433205,-0.21623898,0.1297475,0.29776588,9.80127,0.011822518,0.011599715,0.9270535,0.3745631,0.035354614,0.216156,9.702942,-0.10319519,-0.013565064,0.025405884
2022/12/14 18:35,361,0.3032745,0.028450161,0.45507526,0.14090215,0.25715876,9.802265,0.01155829,0.009485567,0.92769307,0.37304416,0.48666382,0.3532257,10.427795,-0.06271362,-0.008239746,0.015808105
2022/12/14 18:35,400,0.14846228,0.13412842,0.098480225,0.13916221,0.25999427,9.802216,0.011516458,0.009755117,0.92776924,0.37284914,0.20355225,0.36280823,9.936981,0.032089233,0.01838684,-0.067276
2022/12/14 18:35,441,-0.20944083,-0.060958445,0.02410698,0.13411798,0.2664758,9.802112,0.01141138,0.01005914,0.9278098,0.37274328,-0.038864136,0.22573853,9.977081,0.002258301,0.004547119,-0.025726318
2022/12/14 18:35,480,0.077145934,0.101906866,0.17153072,0.13422677,0.27169323,9.801967,0.011534894,0.010409034,0.92793703,0.37241295,0.13771057,0.41966248,10.048904,0.038482666,0.005615234,-0.019348145
2022/12/14 18:35,520,-0.097612694,-0.03942114,-0.233922,0.13689223,0.28627464,9.801515,0.011910687,0.010952624,0.92808473,0.37201735,0.033569336,0.22453308,9.649078,0.009719849,-0.013565064,-0.001235962
2022/12/14 18:35,561,0.108159184,-0.015718192,0.07394028,0.14381793,0.27619797,9.801705,0.012039503,0.010353248,0.92836756,0.3713241,0.2592163,0.27122498,10.004013,-0.03288269,-0.01676941,0.006225586
2022/12/14 18:35,600,0.07186523,0.024084598,0.030426025,0.14979845,0.2679193,9.801846,0.012160665,0.009854387,0.9285656,0.37083805,0.22210693,0.27661133,9.896881,-0.014785767,-0.021026611,-0.006561279
2022/12/14 18:35,640,0.07968344,0.009757608,-0.10999489,0.16016297,0.2632276,9.801808,0.012561054,0.009438478,0.9286319,0.37066957,0.26519775,0.29696655,9.848389,-0.027557373,-0.021026611,-0.024673462
2022/12/14 18:35,680,-0.06842221,-0.010663837,0.12743759,0.17073667,0.25467664,9.801855,0.012887951,0.008801284,0.9287088,0.3704814,0.107788086,0.2053833,10.056686,-0.009460449,-0.014633179,-0.016143799
2022/12/14 18:35,720,0.008505255,0.030269474,0.17089462,0.1672994,0.25656098,9.801866,0.012767844,0.008995141,0.92884505,0.37013903,0.11975098,0.23171997,10.073441,0.032089233,0.007736206,-0.016143799
2022/12/14 18:35,760,-0.062862396,-0.085442394,-0.049697876,0.15709057,0.2685239,9.801714,0.012500782,0.00976653,0.9291953,0.3692485,0.05570984,0.24369812,9.864548,0.04273987,-0.019958496,0.02645874
2022/12/14 18:35,801,0.10517523,0.08889696,-0.002649307,0.16498032,0.28147596,9.801222,0.013107106,0.010246733,0.929602,0.36818925,0.27957153,0.35742188,9.863358,0.020370483,-0.010375977,0.027526855
2022/12/14 18:35,840,-0.18826243,-0.11422557,-0.15916252,0.1639951,0.28648612,9.801092,0.013145748,0.010513777,0.929906,0.36741185,0.002441406,0.20118713,9.719711,0.011856079,0.01838684,0.017944336
2022/12/14 18:35,880,-0.006997764,0.004901081,-0.06231594,0.15746807,0.27704275,9.801472,0.012641423,0.010210082,0.9305513,0.36580086,0.17901611,0.29936218,9.904053,-0.038208008,-0.01889038,0.058425903
2022/12/14 18:35,920,0.23933375,0.15419692,0.15950966,0.16969788,0.272666,9.80139,0.013126826,0.00979219,0.93104845,0.3645279,0.3675537,0.39093018,10.047714,-0.009460449,0.014129639,0.008361816
2022/12/14 18:35,960,-0.13146892,-0.105468184,0.09774494,0.16838652,0.2764863,9.801306,0.013127316,0.010008874,0.9313483,0.3637552,-0.018508911,0.15629578,9.962723,0.034225464,-0.001846314,0.010482788
2022/12/14 18:35,1000,-0.01722774,-0.037522435,-0.21669483,0.16531092,0.2840313,9.801142,0.013106255,0.010443204,0.9318664,0.36241436,0.16165161,0.30055237,9.682587,0.019302368,-0.013565064,0.037124634
2022/12/14 18:35,1040,0.16533844,0.08977315,-0.15439987,0.17464271,0.2860011,9.800923,0.013575785,0.010378079,0.9322259,0.36147326,0.26341248,0.3532257,9.746643,-0.026504517,0.002410889,0.005157471
2022/12/14 18:35,1080,-0.112123966,-0.12878075,0.1180954,0.17502607,0.2657516,9.801486,0.013153738,0.009273624,0.9323946,0.36108342,0.06588745,0.1658783,10.165619,-0.049926758,-0.013565064,-0.003356934
2022/12/14 18:35,1120,-0.024801627,-0.011611134,0.4282055,0.17854935,0.26179555,9.801528,0.013423384,0.009321285,0.932765,0.36011446,0.23886108,0.28259277,10.224289,0.07043457,-0.023147583,0.03605652
2022/12/14 18:35,1160,0.10940881,-0.051422685,-0.31901455,0.18846188,0.29811403,9.800305,0.014430839,0.010733758,0.93306875,0.35924813,0.26101685,0.19342041,9.559891,0.055526733,-0.026351929,0.011550903
2022/12/14 18:35,1202,0.035387352,-0.03656894,-0.10751343,0.19510137,0.29947457,9.800135,0.014767876,0.010682317,0.9331964,0.35890418,0.22569275,0.29096985,9.85437,-0.022232056,-0.001846314,-0.005493164
2022/12/14 18:35,1240,-0.030857176,-0.030357808,0.06795311,0.19490749,0.29039183,9.800411,0.014590316,0.0102563,0.93327194,0.35872743,0.12036133,0.263443,9.999832,-0.011581421,-0.002914429,-0.008682251
2022/12/14 18:35,1280,-0.042481944,0.004420191,0.03918934,0.19838157,0.29208195,9.800291,0.014780717,0.010281746,0.9334759,0.35818785,0.24604797,0.34005737,10.0177765,0.021438599,-0.007171631,0.01473999
2022/12/14 18:35,1320,0.102502435,0.09404507,-0.029046059,0.20298265,0.30788368,9.799714,0.015284188,0.010956416,0.9336086,0.35780078,0.27238464,0.39811707,9.840607,0.03529358,-0.001846314,-0.015075684
2022/12/14 18:35,1360,-0.09017734,-0.121537805,-0.19569492,0.20161001,0.31413743,9.799543,0.015327628,0.01128663,0.93377537,0.35735303,0.13412476,0.20419312,9.743042,1.37E-04,-0.008239746,0.013687134
2022/12/14 18:35,1400,0.22644266,0.04059112,0.13435745,0.20825936,0.30434945,9.799714,0.015459039,0.01070905,0.9340064,0.3567609,0.3861084,0.36878967,10.116547,-0.020111084,0.004547119,-1.68E-04
2022/12/14 18:35,1441,-0.011021227,0.032250583,0.01613617,0.21114849,0.3129057,9.799382,0.015727513,0.011137616,0.9341109,0.3564624,0.1407013,0.32269287,9.864548,0.022506714,0.005615234,-0.017211914
2022/12/14 18:35,1480,-0.03590852,-0.003047556,-0.08262539,0.20932733,0.31287232,9.799422,0.015636362,0.011044455,0.9343025,0.35596678,0.16644287,0.33766174,9.91243,-0.025436401,-0.009307861,0.009414673
2022/12/14 18:35,1520,0.11949262,0.02612263,0.14553833,0.21468967,0.30864185,9.79944,0.015830645,0.01081556,0.93442637,0.35564002,0.3466034,0.35681152,9.99205,0.012924194,-0.001846314,-1.68E-04
2022/12/14 18:35,1560,0.012287438,0.04865393,-0.12872124,0.22457762,0.31666222,9.798964,0.016447116,0.011019289,0.9344302,0.35559565,0.2376709,0.3544159,9.833435,-9.31E-04,-0.019958496,-0.005493164
2022/12/14 18:35,1601,0.13830331,0.03683558,0.07843399,0.23425971,0.31966695,9.798638,0.0169632,0.010987007,0.934423,0.3555913,0.39927673,0.31910706,9.959122,0.011856079,-0.013565064,-0.014022827
2022/12/14 18:35,1640,0.046516716,-0.03304854,-0.12032318,0.2433574,0.32458037,9.798256,0.017486611,0.01105548,0.93439746,0.35563096,0.269989,0.30892944,9.8076935,0.002258301,-0.006103516,-0.03211975
2022/12/14 18:35,1680,0.098216414,-0.001698524,-0.018212318,0.25134227,0.31668356,9.798312,0.017724518,0.010533221,0.9343782,0.3556856,0.3460083,0.2843933,10.063873,-0.038208008,-0.001846314,-0.0630188
2022/12/14 18:35,1720,-0.25389037,-0.021295696,0.24772263,0.24284384,0.3113177,9.798699,0.017230548,0.010417371,0.9340941,0.35645878,-0.04484558,0.22991943,10.124329,0.03315735,0.003479004,-0.038513184
2022/12/14 18:35,1761,0.119869426,0.058523983,-0.024006844,0.23715426,0.32806557,9.798291,0.017434662,0.011423972,0.93387395,0.3569943,0.42800903,0.39811707,9.934586,0.05445862,-0.01676941,-0.011886597
2022/12/14 18:35,1800,-0.04856059,-0.011201113,-0.24357128,0.24156952,0.354528,9.797262,0.017978247,0.012467913,0.93342686,0.35810012,0.08683777,0.37477112,9.507217,0.031021118,0.01626587,-0.05343628
2022/12/14 18:35,1840,-0.084912896,-0.060386896,-0.07934761,0.23700216,0.34446302,9.797733,0.017587798,0.012055799,0.93310845,0.3589623,0.151474,0.24429321,9.942963,-0.06059265,-0.002914429,-0.031066895
2022/12/14 18:35,1880,0.07697472,-0.008998096,0.30937386,0.23336102,0.32574874,9.798459,0.01707595,0.011224775,0.9329839,0.35933766,0.40226746,0.3244934,10.21051,0.004394531,2.75E-04,0.004089356
2022/12/14 18:35,1921,0.1389592,0.06923306,-0.093037605,0.23034371,0.3406827,9.798023,0.01721779,0.011974352,0.9326276,0.3602304,0.29333496,0.4112854,9.81488,0.03741455,0.008804321,-0.05130005
2022/12/14 18:35,1960,-0.05997841,-0.041686416,-0.3591032,0.22528861,0.3412639,9.7981205,0.017005112,0.012070714,0.9321173,0.36155573,0.12095642,0.29096985,9.619141,-0.04460144,0.01838684,-0.04916382
2022/12/14 18:35,2000,-0.11844663,-0.10837197,0.17038155,0.21772562,0.31460425,9.799184,0.016162613,0.010928774,0.9318384,0.36234868,0.07965088,0.23890686,10.020767,-0.05206299,0.021591187,-0.002304077
2022/12/14 18:35,2040,-0.016726777,-0.054991275,-0.04642868,0.21095005,0.29348412,9.799987,0.015453033,0.010045208,0.93174547,0.36264396,0.14907837,0.2233429,9.921417,-0.061645508,-0.005050659,-1.68E-04
2022/12/14 18:35,2081,-0.08516161,8.03E-04,0.074233055,0.2078702,0.2782291,9.800498,0.015025205,0.009375683,0.93172336,0.36273667,0.116760254,0.32330322,9.919022,-0.015838623,0.022659302,0.01687622
2022/12/14 18:35,2120,-0.07775386,-0.033742964,-0.23322105,0.20028159,0.26213694,9.801101,0.014248727,0.008574122,0.93177754,0.36264867,0.13291931,0.25985718,9.737061,-0.08401489,0.017318726,0.01473999
2022/12/14 18:35,2160,0.07712355,0.027889922,0.1165123,0.19090927,0.22481814,9.802214,0.013226694,0.007158188,0.93195873,0.36225224,0.23168945,0.263443,9.941772,-0.07443237,0.033309937,0.024337769
2022/12/14 18:35,2200,-0.008509934,-0.014964059,0.10706806,0.17907524,0.1976191,9.803023,0.012160372,0.006086296,0.9320469,0.36208242,0.20475769,0.14134216,10.099777,-0.06378174,0.03224182,0.013687134
2022/12/14 18:35,2241,-0.003773078,-0.023991615,0.014815331,0.16626187,0.18152061,9.80356,0.011252812,0.005559953,0.9321337,0.36189675,0.13771057,0.12637329,9.917831,-0.026504517,0.020523071,0.008361816
2022/12/14 18:35,2280,-0.050665155,0.048075944,0.17341232,0.15939035,0.1656558,9.803956,0.010631816,0.004935813,0.93225205,0.3616196,0.090423584,0.20837402,10.142273,-0.04248047,-0.003982544,0.015808105
2022/12/14 18:35,2320,0.013209641,0.006582797,-0.073699,0.14935844,0.16683394,9.804093,0.010175823,0.00517833,0.93231004,0.3614798,0.12693787,0.16407776,9.745438,0.008651733,0.03970337,-0.002304077
2022/12/14 18:35,2360,-0.030915141,-0.005845398,0.05551529,0.1413995,0.15776387,9.804361,0.009630297,0.004893608,0.93230903,0.36150122,0.09941101,0.12219238,10.158447,-0.04673767,-0.005050659,-0.002304077
2022/12/14 18:35,2401,-0.07710415,0.007991284,0.18424416,0.12909445,0.15674391,9.804547,0.009025585,0.005073496,0.93237656,0.36134022,0.081451416,0.176651,10.030945,0.053390503,0.025848389,0.020080566
2022/12/14 18:35,2440,0.029309459,0.035356477,-0.35449314,0.12202724,0.16953784,9.804426,0.008888698,0.005770731,0.9324965,0.36102355,0.111968994,0.19342041,9.658051,-0.02116394,0.007736206,0.019012451
2022/12/14 18:35,2480,0.03536181,-0.042152718,0.04254532,0.11635447,0.1556836,9.804724,0.008304128,0.005204421,0.9326947,0.36053368,0.19996643,0.09284973,9.975876,-0.033950806,0.025848389,0.03605652
2022/12/14 18:35,2520,0.09626634,-0.00461787,0.07345581,0.109704904,0.14313914,9.804992,0.007847303,0.004793203,0.9328154,0.36023733,0.1688385,0.10482788,10.07106,-0.025436401,0.003479004,-0.003356934
2022/12/14 18:35,2560,0.020143658,0.044871315,0.06372452,0.105946235,0.14297993,9.805035,0.007665128,0.004855399,0.9328508,0.36014864,0.13652039,0.21496582,9.964508,0.021438599,0.013061523,0.009414673
2022/12/14 18:35,2601,0.055472262,0.049416408,-0.2035656,0.1098655,0.14956099,9.804894,0.007973521,0.005094778,0.9327706,0.3603463,0.1796112,0.1772461,9.759201,-0.024368286,-0.001846314,-0.016143799
2022/12/14 18:35,2640,-0.052765623,-0.090470105,0.1978817,0.109406605,0.13778952,9.805072,0.007736513,0.004541361,0.932684,0.36058304,0.035964966,0.04916382,10.167419,1.37E-04,-7.78E-04,-0.005493164
2022/12/14 18:35,2680,0.08855992,0.077675074,-0.029633522,0.10955398,0.14864407,9.804912,0.00794059,0.005058872,0.932861,0.36011356,0.24006653,0.23112488,9.83403,0.0448761,-0.011444092,0.023269653
2022/12/14 18:35,2720,0.13636652,0.006243423,-0.16310787,0.1239445,0.1605603,9.804553,0.008844472,0.005360705,0.93282026,0.36019358,0.24365234,0.14912415,9.758606,-0.020111084,-0.001846314,-0.021469116
2022/12/14 18:35,2760,-0.034121305,0.046178743,0.15798855,0.12472719,0.15008569,9.804708,0.008691933,0.004843326,0.9326268,0.3607052,0.085632324,0.15330505,10.075241,-0.019042969,0.011993408,-0.033187866
2022/12/14 18:35,2800,-0.12510706,0.047943264,0.14118195,0.113027856,0.15254721,9.804812,0.008182388,0.005173069,0.93251973,0.36098918,-0.079559326,0.20478821,10.0130005,0.020370483,2.75E-04,-0.001235962
2022/12/14 18:35,2840,0.04382518,0.027460858,-0.038835526,0.1081339,0.16939566,9.804591,0.008256679,0.006068655,0.9327036,0.36049825,0.20236206,0.20896912,9.881912,0.04273987,-0.008239746,0.02645874
2022/12/14 18:35,2881,0.14391153,0.03041321,-0.14613438,0.11970508,0.18271104,9.804217,0.009053711,0.006486694,0.93259144,0.36076194,0.16584778,0.2520752,9.776566,0.009719849,0.006668091,-0.024673462
2022/12/14 18:35,2920,-0.18109107,-0.035573497,0.062120438,0.1138413,0.175875,9.804412,0.008650899,0.006266911,0.9324902,0.3610372,-0.088531494,0.17366028,10.032745,-0.020111084,-0.005050659,-0.004425049
2022/12/14 18:35,2960,-0.005250819,0.044237122,0.1350708,0.10799816,0.1746623,9.804501,0.008348776,0.006319371,0.93260324,0.36075142,0.11317444,0.23112488,10.079437,0.015045166,-0.008239746,0.013687134
2022/12/14 18:35,3000,-0.1349714,0.041858777,-0.12207031,0.10572443,0.19230077,9.804195,0.008562475,0.007203261,0.9327314,0.36039832,-0.03286743,0.19999695,9.781952,0.038482666,-0.002914429,0.021133423
2022/12/14 18:35,3040,0.043316282,-0.11402808,-0.15577412,0.10272893,0.18992235,9.804273,0.008368753,0.007153986,0.933112,0.35941726,0.24006653,0.1257782,9.896271,-0.031829834,-0.01676941,0.04989624
2022/12/14 18:35,3080,0.12456169,3.22E-04,0.25804806,0.12052835,0.18057166,9.804247,0.009103767,0.006382094,0.9333118,0.35889474,0.18919373,0.19102478,10.182983,0.006530762,-0.010375977,0.004089356
2022/12/14 18:35,3121,-0.14765194,-0.029630646,-0.065047264,0.11854142,0.18932076,9.804106,0.009103804,0.006844031,0.9334408,0.35855067,-0.001144409,0.1479187,9.838211,0.03529358,-0.007171631,0.02645874
2022/12/14 18:35,3160,0.03151828,0.06908457,-0.005783081,0.1174812,0.20358214,9.803833,0.009307,0.007551108,0.9337736,0.35766363,0.18200684,0.30714417,9.93338,0.03529358,-0.001846314,0.041381836
2022/12/14 18:35,3200,-0.006669216,-0.07507372,-0.23511887,0.120423004,0.21258937,9.803606,0.009574098,0.007879172,0.93392193,0.3572619,0.14848328,0.15211487,9.703537,-0.014785767,0.005615234,0.017944336
2022/12/14 18:35,3240,0.022345051,-0.043999046,0.13991928,0.12019987,0.1934712,9.804006,0.009246126,0.007027789,0.9340766,0.35688367,0.16285706,0.15809631,10.060883,-0.036087036,0.003479004,0.01687622
2022/12/14 18:35,3280,0.017078072,0.005372331,0.24177837,0.12021207,0.18760122,9.804118,0.009136611,0.00675235,0.9342509,0.3564354,0.1580658,0.19641113,10.10817,0.013977051,-0.003982544,0.019012451
2022/12/14 18:35,3320,0.03740961,0.003524318,-0.038113594,0.122813955,0.20082535,9.803824,0.009497375,0.007339787,0.93441933,0.3559725,0.17303467,0.22213745,9.895081,0.04701233,-0.003982544,0.022201538
2022/12/14 18:35,3360,0.1430198,-0.02889669,-0.23151398,0.12978433,0.21208476,9.803497,0.010031467,0.007753067,0.93452656,0.35566744,0.32565308,0.16049194,9.708923,0.001205444,0.001342773,-0.004425049
2022/12/14 18:35,3400,0.024115473,-0.050663605,0.0605402,0.1388343,0.20063762,9.803615,0.010257981,0.007039193,0.9343837,0.35605097,0.12814331,0.13835144,10.003418,-0.038208008,0.009872437,-0.03425598
2022/12/14 18:35,3440,-0.066454336,-0.027667552,0.21613407,0.13537154,0.18515508,9.8039665,0.009867427,0.006336033,0.9343736,0.35610163,0.14788818,0.22154236,10.115341,-0.007324219,-0.022094727,0.003036499
2022/12/14 18:35,3481,0.1285479,0.050563186,0.029141426,0.15054129,0.19968325,9.803461,0.010707463,0.006679615,0.9342737,0.35633326,0.2083435,0.2347107,9.904053,0.043807983,-0.011444092,-0.022537231
2022/12/14 18:35,3520,-0.057906434,-0.121383145,-0.23310089,0.15124772,0.20021011,9.80344,0.010844839,0.00678852,0.9342169,0.35647592,0.1287384,0.13116455,9.664642,-0.017974854,-0.014633179,-0.007629395
2022/12/14 18:35,3560,0.28861582,0.16329022,0.236063,0.1634081,0.18849202,9.803476,0.01121405,0.006003765,0.93404436,0.35693038,0.43818665,0.3316803,10.156052,-0.038208008,0.002410889,-0.04916382
2022/12/14 18:35,3600,-0.3570326,-0.10044281,0.17591286,0.16952191,0.19777885,9.803189,0.011684317,0.006316513,0.9334754,0.3583955,-0.21961975,0.12936401,10.154846,0.05873108,-0.005050659,-0.05769348
2022/12/14 18:35,3640,-0.09536798,-0.021229923,-0.24629116,0.16647437,0.21767943,9.802821,0.011905178,0.007316158,0.9333631,0.35866147,0.12693787,0.22932434,9.725693,0.029968262,0.001342773,0.005157471
2022/12/14 18:35,3681,-0.031584084,-0.07762137,-0.15972996,0.16294126,0.21638367,9.802908,0.011716061,0.007314647,0.9332291,0.3590162,0.12634277,0.11680603,9.783752,-0.028625488,0.014129639,-0.025726318
2022/12/14 18:35,3720,-0.10181686,-0.031974986,0.086639404,0.15665253,0.19851384,9.803389,0.011091985,0.006575036,0.9331035,0.35937658,0.047927856,0.19580078,9.9657135,-0.049926758,0.014129639,-0.008682251
2022/12/14 18:35,3760,0.003405824,0.02097848,0.087008476,0.14375475,0.19052511,9.803745,0.010332185,0.006430558,0.9330891,0.35943943,0.13951111,0.18203735,9.996231,0.006530762,0.023712158,0.001968384
2022/12/14 18:35,3800,0.1262253,0.05977957,-0.07064438,0.14009944,0.19447856,9.803721,0.010232064,0.006683625,0.9330166,0.35962567,0.19636536,0.27062988,9.868149,-9.31E-04,-0.005050659,-0.017211914
2022/12/14 18:35,3840,-0.124485776,-0.03793256,-0.05279064,0.13264598,0.19229019,9.803868,0.009840627,0.006711258,0.9328405,0.36009252,0.02218628,0.1251831,9.8394165,-0.009460449,0.020523071,-0.007629395
2022/12/14 18:35,3881,0.027494803,-0.009523541,0.089188576,0.12534794,0.183488,9.804132,0.009333082,0.006424628,0.93277395,0.3602838,0.15686035,0.17306519,10.004013,-0.003067017,-0.009307861,0.015808105
2022/12/14 18:35,3920,0.034093484,0.045692056,0.04051304,0.1302741,0.18801057,9.803983,0.009647558,0.006531201,0.9326814,0.36051312,0.07307434,0.19161987,9.927994,0.007598877,-0.005050659,0.003036499
2022/12/14 18:35,3960,0.049140424,-0.012894884,0.077521324,0.13047704,0.18933779,9.803954,0.009687912,0.006603754,0.9325867,0.36075547,0.18798828,0.19520569,9.919022,0.010787964,-0.002914429,0.003036499
2022/12/14 18:35,4000,-0.08147028,0.032504693,0.020796776,0.13504043,0.19682439,9.803745,0.010045179,0.006872249,0.93245167,0.3610897,0.03895569,0.2227478,9.977081,0.013977051,-0.014633179,0.012619019
2022/12/14 18:35,4041,0.1025525,0.016616002,-0.09390259,0.13540748,0.20399013,9.803594,0.010197226,0.007202546,0.93231714,0.36142623,0.2705841,0.2167511,9.766983,0.006530762,-0.001846314,0.010482788
2022/12/14 18:35,4080,0.014615089,0.05953002,-0.066553116,0.14403322,0.2019657,9.803512,0.010572591,0.006943435,0.93218166,0.3617697,0.09880066,0.25985718,9.951935,-0.027557373,-0.003982544,-0.016143799
2022/12/14 18:35,4120,-0.18179359,-0.06035188,-0.06546116,0.14118388,0.19391023,9.803717,0.01029009,0.006610542,0.93209857,0.3619981,-0.019699097,0.055740356,9.889099,-0.019042969,-0.021026611,0.003036499
2022/12/14 18:35,4160,0.0533956,-0.110926226,0.13240528,0.14146613,0.17756456,9.804022,0.009990614,0.005814311,0.9319384,0.3624323,0.19038391,0.12757874,10.020172,0.005462647,0.01626587,9.00E-04
2022/12/14 18:35,4201,-0.08848378,0.023272485,-0.033535957,0.13866585,0.17976886,9.804022,0.00985836,0.006016254,0.931781,0.36283714,0.043136597,0.21136475,9.889099,0.003326416,0.013061523,-0.006561279
2022/12/14 18:35,4240,-0.05068645,-0.023647323,0.052103043,0.12977263,0.1773882,9.804187,0.009450128,0.006024016,0.93165714,0.36316583,0.1006012,0.100631714,10.035736,-0.004119873,0.005615234,0.020080566
2022/12/14 18:35,4280,0.07575467,0.02267605,-0.03247547,0.1282311,0.17829178,9.804191,0.009394974,0.006093411,0.93157685,0.36337194,0.21852112,0.22094727,9.837616,0.008651733,0.001342773,0.02645874
2022/12/14 18:35,4320,0.13942643,0.098544106,-0.1584568,0.13665521,0.18505685,9.803951,0.009924397,0.006252631,0.931348,0.3639413,0.28735352,0.30055237,9.744843,-0.012649536,0.007736206,-0.001235962
2022/12/14 18:35,4360,-0.017716989,-0.037610933,-0.028302193,0.13918214,0.17042452,9.804182,0.00977403,0.005508591,0.93127185,0.36415228,0.08743286,0.10423279,9.904053,-0.06484985,-7.78E-04,-0.014022827
2022/12/14 18:35,4400,-0.034286037,-0.12638508,0.4273281,0.14025575,0.14849252,9.8045225,0.009418405,0.004445581,0.9312205,0.3643075,0.09580994,0.056350708,10.3415985,0.010787964,-0.013565064,0.004089356
2022/12/14 18:35,4440,-0.00980863,0.053752646,-0.017915726,0.1454433,0.16455603,9.804191,0.00996514,0.005108275,0.93107563,0.36465436,0.13531494,0.26045227,9.865753,0.052337646,-0.01676941,-0.004425049
2022/12/14 18:35,4481,-0.07061729,-0.023668006,-0.21429825,0.14717475,0.17879371,9.803915,0.010314451,0.005749352,0.9308981,0.3650882,0.0778656,0.15510559,9.759811,0.004394531,-0.010375977,0.006225586
2022/12/14 18:35,4520,-0.023239419,0.011189804,0.021383286,0.14651152,0.17727296,9.803953,0.010227968,0.005687081,0.9307609,0.36544096,0.05630493,0.18084717,9.907654,-0.005187988,0.002410889,0.010482788
2022/12/14 18:35,4561,-0.06936294,-0.056088045,0.09864426,0.14028884,0.1744924,9.804094,0.009907934,0.005671125,0.93089783,0.3651012,0.06707764,0.103637695,10.039337,0.018249512,-0.005050659,0.041381836
2022/12/14 18:35,4600,0.20917536,0.07864763,-0.07375145,0.14779149,0.18598047,9.803772,0.010476378,0.006079686,0.93099004,0.36484352,0.3286438,0.26104736,9.812485,0.018249512,0.008804321,0.009414673
2022/12/14 18:35,4640,-0.1344802,-0.096875444,-0.033122063,0.14472134,0.1844772,9.803846,0.010303823,0.006063412,0.9309205,0.36502624,-0.03466797,0.04019165,9.910049,-0.017974854,0.009872437,-0.003356934
2022/12/14 18:35,4680,0.010581821,0.002195492,0.09125519,0.13734153,0.17638445,9.804101,0.009802528,0.005817031,0.93094355,0.36498517,0.16584778,0.18922424,10.038727,0.008651733,-7.78E-04,0.029663086
2022/12/14 18:35,4721,0.052573368,-0.06194423,0.032032013,0.14071426,0.1816993,9.803957,0.010063565,0.00600327,0.93081987,0.3652903,0.14907837,0.11140442,9.915436,0.028900146,0.011993408,0.001968384
2022/12/14 18:35,4760,0.058421433,-0.002673864,-0.12842369,0.1365046,0.18563473,9.803943,0.009937667,0.006267525,0.93078434,0.36537984,0.2370758,0.2778015,9.672424,-0.003067017,0.011993408,0.020080566
2022/12/14 18:35,4800,0.07109654,0.08727746,-0.13867283,0.14130098,0.17799377,9.804016,0.010010148,0.005699424,0.9307656,0.36543494,0.18141174,0.23291016,9.85498,-0.05845642,-7.78E-04,-0.014022827
2022/12/14 18:35,4841,-0.13621314,-0.05500634,0.14771461,0.1376734,0.1561683,9.8044405,0.009357893,0.004765019,0.9307739,0.36544442,0.008422852,0.10961914,10.0914,-0.03288269,-0.001846314,0.01687622
2022/12/14 18:35,4880,0.15310761,0.03942895,0.056578636,0.14354238,0.14801116,9.804482,0.009568749,0.004354619,0.93095064,0.36499372,0.33103943,0.22514343,9.981277,-0.012649536,-0.012496948,0.01473999
2022/12/14 18:35,4920,0.08268444,0.046916172,-0.005680084,0.15531291,0.15078203,9.804261,0.010180181,0.004264602,0.9308554,0.365221,0.24305725,0.22692871,9.91423,0.009719849,-0.014633179,-0.020401001
2022/12/14 18:35,4961,-0.12236366,-0.12208377,-0.11768341,0.15453541,0.14632009,9.80434,0.01006177,0.004063298,0.9307126,0.3655904,0.064086914,0.04257202,9.822052,-0.015838623,0.003479004,-0.012954712
2022/12/14 18:35,5000,-0.06449932,0.019646987,0.08409405,0.14560533,0.13435516,9.804648,0.009414369,0.003663097,0.9307662,0.3654753,0.10897827,0.115600586,10.027954,-0.026504517,0.004547119,0.008361816
2022/12/14 18:35,5040,-0.027974129,0.071710184,0.09139919,0.14517267,0.13367137,9.804665,0.009381182,0.003638464,0.93075716,0.36549938,0.14489746,0.1539154,10.015991,0.013977051,-0.021026611,0.015808105
2022/12/14 18:35,5080,0.045622423,-0.044293866,-0.09225941,0.15229377,0.13947733,9.804476,0.009828049,0.003779643,0.93069047,0.36565617,0.16525269,0.13296509,9.801712,0.019302368,0.001342773,0.012619019
2022/12/14 18:35,5120,-0.09071,0.05689694,-0.1289959,0.14674053,0.13961636,9.804558,0.009566752,0.00389058,0.93072313,0.36557868,0.07725525,0.18862915,9.813675,-0.030761719,0.011993408,0.017944336
2022/12/14 18:35,5161,0.11146961,0.070308566,0.23811913,0.1456284,0.13014485,9.804706,0.009388499,0.003447866,0.9308401,0.36528996,0.30171204,0.22692871,10.23027,-0.015838623,0.003479004,0.015808105
2022/12/14 18:35,5200,-0.001549259,0.021809593,0.13789749,0.1487094,0.14228413,9.804491,0.009709009,0.00398276,0.9308069,0.36536074,0.06588745,0.13175964,10.053696,0.0491333,0.009872437,-0.004425049
2022/12/14 18:35,5240,-0.036895826,0.002814695,-0.17742538,0.14095855,0.1567256,9.804384,0.009592066,0.004896179,0.93090075,0.36511338,0.1574707,0.17185974,9.711319,0.026763916,0.019454956,0.008361816
2022/12/14 18:35,5280,-0.046046227,-0.09843427,0.044431686,0.13566788,0.15080242,9.804552,0.009245246,0.004636922,0.9310806,0.364667,0.083847046,0.033599854,10.020767,-0.02330017,2.75E-04,0.022201538
2022/12/14 18:35,5320,0.21928984,-0.048484042,0.15422153,0.13770162,0.14385515,9.804628,0.009209336,0.004276298,0.9313607,0.36395624,0.33642578,0.11740112,10.105774,0.022506714,0.010940552,0.017944336
2022/12/14 18:35,5360,-0.011495739,-0.005938366,-0.039631844,0.1415188,0.1576138,9.804362,0.009646827,0.004857308,0.9312942,0.36410776,0.08743286,0.15330505,9.867538,0.040618896,0.017318726,-0.020401001
2022/12/14 18:35,5400,-0.09457204,-0.030773282,-0.023444176,0.13407022,0.16976887,9.804263,0.009517633,0.005574847,0.9313686,0.36391053,0.081451416,0.13774109,9.888489,0.032089233,-0.002914429,0.017944336
2022/12/14 18:35,5441,0.059283406,-0.013609022,-0.06332016,0.13733996,0.17888129,9.804057,0.009841746,0.005947504,0.9313833,0.36385834,0.19396973,0.08029175,9.902267,0.017181396,-0.007171631,0.008361816
2022/12/14 18:35,5480,0.004778743,-0.05120197,-0.0379467,0.14035599,0.17908229,9.80401,0.010006436,0.00590969,0.9315154,0.36351612,0.14250183,0.1545105,9.840607,0.010787964,-0.006103516,0.011550903
2022/12/14 18:35,5520,0.06639212,-0.006801605,-0.08966446,0.14430213,0.17611912,9.804007,0.010118301,0.005692248,0.93156534,0.36338857,0.21253967,0.1946106,9.871735,-0.020111084,0.002410889,-0.005493164
2022/12/14 18:35,5560,-0.1142776,0.018411964,0.22317219,0.14213116,0.17504871,9.804057,0.009992897,0.005685895,0.9317218,0.3629907,0.003036499,0.19342041,10.219498,0.026763916,-0.003982544,-0.002304077
2022/12/14 18:35,5601,-0.2266717,-0.08397156,-0.19269848,0.13167275,0.19460644,9.803835,0.009807254,0.007013665,0.9319095,0.36249042,0.042541504,0.1191864,9.682587,0.08642578,0.008804321,0.04989624
2022/12/14 18:35,5640,0.18531828,0.001360387,-0.17445183,0.13244471,0.20216244,9.803671,0.010023435,0.007169169,0.9322802,0.361527,0.33164978,0.16946411,9.804092,-0.03288269,-7.78E-04,0.019012451
2022/12/14 18:35,5680,0.03994721,0.020578891,0.12740707,0.14141695,0.19396348,9.803712,0.010297553,0.006615935,0.93235004,0.36134967,0.14968872,0.26045227,9.99025,1.37E-04,0.001342773,-0.006561279
2022/12/14 18:35,5720,-0.096487164,0.049963072,-0.10637188,0.13674104,0.19312982,9.803795,0.01005937,0.006663187,0.9323786,0.36128178,0.011413574,0.22154236,9.853775,-0.020111084,-0.001846314,-1.68E-04
2022/12/14 18:35,5761,-0.076665044,0.13062593,0.07270622,0.12894557,0.19172814,9.803927,0.009659517,0.006744954,0.93256176,0.36081812,0.08085632,0.3244934,9.937576,0.002258301,0.003479004,0.017944336
2022/12/14 18:35,5800,0.007782385,0.039777786,-0.039790154,0.12565982,0.19517526,9.803903,0.009561302,0.006976736,0.93284005,0.36009637,0.13113403,0.19880676,9.898071,-0.013717651,-0.001846314,0.031784058
2022/12/14 18:35,5840,0.038001403,-0.033456355,0.12852478,0.12621376,0.18763024,9.804044,0.009443526,0.00661556,0.9331451,0.35931504,0.26519775,0.17785645,10.065659,-9.31E-04,0.019454956,0.04031372
2022/12/14 18:35,5880,0.02921462,0.080948055,0.12535667,0.12531765,0.19858444,9.803838,0.009600731,0.007154484,0.9331862,0.3591939,0.13172913,0.21257019,9.967499,0.0448761,0.029037476,0.025405884
2022/12/14 18:35,5920,0.089228466,-0.02881281,-0.16325283,0.12904766,0.21573794,9.803427,0.010092484,0.007902565,0.9331782,0.3591854,0.23527527,0.1832428,9.773575,0.026763916,-0.026351929,0.024337769
2022/12/14 18:35,5961,0.057750225,-0.15082698,-0.086265564,0.14370501,0.21198873,9.803306,0.010721657,0.007455248,0.93315995,0.3592241,0.20654297,0.12098694,9.848984,1.37E-04,0.001342773,-0.01828003
2022/12/14 18:35,6000,0.11967565,0.082201794,-0.10159016,0.14504234,0.20341393,9.803468,0.010630673,0.007018899,0.9330359,0.3595576,0.2550354,0.30413818,9.828049,-0.05632019,-7.78E-04,-0.027862549
2022/12/14 18:35,6040,-0.060924098,0.05068904,0.3370514,0.15122065,0.19324662,9.803579,0.010743878,0.006412311,0.93271905,0.3603868,0.006027222,0.19221497,10.22728,-0.001998901,-0.001846314,-0.038513184
2022/12/14 18:35,6080,-0.16922207,-0.0513833,-0.121273994,0.13721082,0.20023346,9.803646,0.010206214,0.007001638,0.93270504,0.36042765,0.035964966,0.18383789,9.77597,0.0256958,-0.006103516,0.015808105
2022/12/14 18:35,6120,0.15280911,0.07679416,-0.17915249,0.14296475,0.2036012,9.8034935,0.010541303,0.007056863,0.932728,0.3603576,0.23947144,0.26164246,9.741852,-0.02330017,0.007736206,-0.009750366
2022/12/14 18:35,6160,0.016058475,0.056519672,-0.061792374,0.13862668,0.19039464,9.803822,0.010093745,0.006505978,0.93265015,0.36058208,0.13891602,0.26882935,9.840012,-0.06378174,0.02798462,-0.001235962
2022/12/14 18:35,6201,0.18126805,0.006546572,0.060245514,0.12977865,0.16763215,9.8043585,0.009109925,0.005410594,0.93247473,0.36107978,0.22509766,0.12158203,10.035736,-0.07975769,0.052474976,-0.040649414
2022/12/14 18:35,6240,-0.18164365,-0.177133,0.5039768,0.11878268,0.1506802,9.804773,0.008426033,0.004970982,0.9322019,0.36180642,-0.13882446,-0.01966858,10.312271,0.04273987,0.007736206,-0.008682251
2022/12/14 18:35,6280,0.09048844,0.048195675,-0.23945522,0.116377145,0.1732522,9.804428,0.008726583,0.00609065,0.9322893,0.36155692,0.24305725,0.2119751,9.691574,0.04701233,0.001342773,0.034988403
2022/12/14 18:35,6320,0.12434559,0.044939443,-0.17892551,0.11932732,0.17590177,9.804346,0.008916624,0.00616089,0.932233,0.3616963,0.18319702,0.20957947,9.742447,-0.02116394,0.007736206,-0.01828003
2022/12/14 18:35,6360,-0.035128772,-0.120329514,-0.018917084,0.116346434,0.15767053,9.804692,0.008441185,0.005345097,0.9320663,0.36214992,0.05152893,0.040786743,9.959122,-0.05845642,0.003479004,-0.017211914
2022/12/14 18:35,6401,-0.012078285,0.008405432,0.2314043,0.114534646,0.14576682,9.804897,0.00813687,0.004809985,0.9319466,0.3624724,0.1293335,0.20957947,10.094391,0.008651733,0.006668091,-0.001235962
2022/12/14 18:35,6440,0.040638216,0.07463786,-0.14377117,0.113302276,0.15011363,9.804847,0.008159592,0.005037818,0.93187815,0.3626446,0.1508789,0.21017456,9.761002,-0.007324219,0.002410889,-0.016143799
2022/12/14 18:35,6480,0.065239966,-0.02721946,0.07980251,0.11295605,0.14224337,9.804968,0.008000209,0.004665736,0.9316769,0.3631699,0.18081665,0.15211487,9.977081,-0.02116394,0.020523071,-0.023605347
2022/12/14 18:35,6520,-0.17266256,-0.09253487,-0.011178017,0.102301195,0.1325766,9.80522,0.007183393,0.004354531,0.9314501,0.3637721,-0.093933105,-0.004699707,9.941772,-0.017974854,0.008804321,-0.012954712
2022/12/14 18:35,6560,0.06434419,0.07853386,0.1272173,0.092480175,0.13108648,9.805338,0.006823622,0.004510588,0.93145895,0.36375454,0.21612549,0.24967957,9.968109,0.038482666,0.009872437,0.017944336
2022/12/14 18:35,6601,-0.10715364,-0.0407497,-0.05219841,0.09594526,0.1440271,9.805122,0.007166638,0.005035657,0.93128705,0.36418095,-0.04244995,0.08268738,9.889099,-0.012649536,0.002410889,-0.012954712
2022/12/14 18:35,6640,-0.02278734,-0.021898344,0.09089565,0.085753255,0.13869189,9.805295,0.006647755,0.004993175,0.9312717,0.36423057,0.061691284,0.11859131,9.983658,0.009719849,-7.78E-04,0.023269653
2022/12/14 18:35,6680,0.013270862,0.01419881,-0.1549902,0.08893166,0.1397889,9.80525,0.006820509,0.004984265,0.9311649,0.3645003,0.046142578,0.14013672,9.828644,-0.02116394,0.007736206,0.005157471
2022/12/14 18:35,6720,0.013624191,0.021296069,0.13462925,0.08382811,0.129489,9.805437,0.006386632,0.004590203,0.93117744,0.36448142,0.11856079,0.13415527,10.083618,-0.012649536,0.010940552,0.007293701
2022/12/14 18:35,6760,0.021642692,0.001283288,0.07370758,0.08914028,0.1322946,9.805353,0.006691916,0.004623381,0.93110377,0.36466366,0.06588745,0.12876892,9.944153,0.029968262,-0.006103516,-0.012954712
2022/12/14 18:35,6800,-0.040046647,-0.025776371,-0.2985382,0.08539819,0.1416892,9.805255,0.006690273,0.005137279,0.9310079,0.3649015,0.037750244,0.15031433,9.605972,-9.31E-04,0.008804321,-0.003356934
2022/12/14 18:35,6840,0.050702356,-0.033223018,0.050042152,0.083682574,0.12437787,9.805504,0.00628633,0.004347902,0.93104434,0.36482602,0.12753296,0.0395813,10.016586,-0.06378174,0.006668091,-0.003356934
2022/12/14 18:35,6881,-0.04364407,-0.017858408,0.1625185,0.08365455,0.107892305,9.805699,0.005979172,0.003564336,0.9309603,0.36505413,0.046142578,0.09524536,10.0099945,-0.007324219,0.008804321,-0.012954712
2022/12/14 18:35,6920,-0.070346326,0.012129664,-0.1988287,0.07814235,0.10581,9.805768,0.005606364,0.003545404,0.9308826,0.3652583,0.003631592,0.14552307,9.700546,-0.024368286,0.013061523,-0.002304077
2022/12/14 18:35,6960,-0.03366729,-0.009694345,0.16027164,0.07153611,0.08396945,9.806029,0.004959552,0.002652535,0.93083745,0.3653902,0.015014648,0.08207703,10.097382,-0.06591797,0.001342773,9.00E-04
2022/12/14 18:35,7000,0.066691495,0.028098635,0.28161907,0.06950916,0.07485901,9.806119,0.004693881,0.002257338,0.93079567,0.36550274,0.14549255,0.1191864,10.155441,0.011856079,0.009872437,-0.005493164
2022/12/14 18:35,7040,-0.11095225,-0.04979568,-0.08709812,0.06609808,0.087291695,9.806039,0.004764381,0.002909838,0.93070835,0.3657196,-0.08615112,0.03718567,9.843597,0.03315735,-0.003982544,-0.005493164
2022/12/14 18:35,7081,0.07883035,0.040264368,-0.021708488,0.0649268,0.090026215,9.806022,0.004759241,0.003062301,0.9307737,0.36555216,0.18978882,0.12637329,9.93338,1.37E-04,-0.002914429,0.010482788
2022/12/14 18:35,7120,0.0393295,0.028406128,8.58E-05,0.067255355,0.0952006,9.805958,0.004967165,0.003263001,0.930664,0.3658268,0.02458191,0.086868286,9.923218,0.013977051,0.01838684,-0.01828003
2022/12/14 18:35,7160,-0.10335093,-0.022824101,-0.0948534,0.05629623,0.09266365,9.806051,0.004399991,0.003346771,0.93064505,0.3658814,0.023986816,0.07789612,9.910645,-0.02330017,-0.002914429,0.006225586
2022/12/14 18:35,7201,0.030764394,-0.023319408,0.22049332,0.05828745,0.0857149,9.806103,0.004364615,0.002980223,0.9306739,0.3658117,0.09880066,0.0796814,10.164429,0.010787964,0.001342773,0.006225586
2022/12/14 18:35,7240,-0.01593664,-0.038251095,-0.08961487,0.06064735,0.09509034,9.806002,0.004652414,0.003379817,0.9305703,0.36606815,0.08503723,0.072509766,9.790329,0.026763916,-0.002914429,0.007293701
2022/12/14 18:35,7280,0.019365102,-0.01583469,-0.12285805,0.06425092,0.09638256,9.805966,0.00487878,0.00331727,0.9304889,0.3662727,0.14489746,0.08985901,9.865158,-0.012649536,-0.010375977,0.009414673
2022/12/14 18:35,7320,0.1563737,0.056673437,0.06321716,0.07399281,0.089915544,9.805959,0.00519003,0.002883417,0.9304436,0.3663871,0.21612549,0.13475037,9.9657135,-0.016906738,-0.001846314,-0.014022827
2022/12/14 18:35,7361,-0.13933939,-0.04575929,0.22480202,0.07757778,0.08626521,9.805964,0.005292196,0.002642699,0.9304042,0.36648744,-0.09811401,0.004867554,10.142883,0.007598877,-0.010375977,-0.022537231
2022/12/14 18:35,7400,-0.089962564,-0.056310527,-0.049646378,0.070140794,0.097761944,9.805912,0.005154624,0.003326459,0.9303597,0.36659676,0.003036499,0.08807373,9.851379,0.059783936,-0.009307861,0.027526855
2022/12/14 18:35,7440,0.21524489,0.04801157,-0.1892252,0.0826684,0.11482517,9.805629,0.006067182,0.003902841,0.93041897,0.36642665,0.26161194,0.115600586,9.771179,0.009719849,-0.003982544,-0.014022827
2022/12/14 18:35,7480,-0.03782078,-0.078189045,0.05551243,0.08821264,0.10830242,9.8056555,0.006210548,0.003485863,0.9301865,0.36701813,0.029373169,-0.009490967,10.0890045,-0.028625488,-0.007171631,-0.024673462
2022/12/14 18:35,7521,-0.12672883,-0.07550492,0.23186684,0.082468495,0.1075203,9.805715,0.005924291,0.00355488,0.93010265,0.36723477,-0.08375549,0.08088684,10.115952,0.0640564,0.004547119,-0.006561279
2022/12/14 18:35,7560,0.006050229,0.027850747,-0.3326006,0.07524318,0.13346486,9.805453,0.006102474,0.005015289,0.9302069,0.36695063,0.038360596,0.16108704,9.598801,0.04168701,-0.001846314,0.013687134
2022/12/14 18:35,7600,0.13507554,-0.001965582,0.039560318,0.07711809,0.1306089,9.805476,0.006074375,0.004659058,0.93028516,0.36675733,0.19038391,0.15330505,10.018982,-0.039276123,2.75E-04,-0.004425049
2022/12/14 18:35,7640,-0.12682384,-0.13740264,0.14829254,0.07674655,0.123519674,9.805572,0.005951021,0.004422838,0.9302251,0.36691457,-0.06819153,0.016845703,10.066269,0.007598877,-0.009307861,0.004089356
2022/12/14 18:35,7681,0.030111298,0.006653398,-0.034820557,0.08135592,0.1305091,9.805444,0.006298751,0.004670397,0.9303539,0.36657903,0.16584778,0.1652832,9.910049,0.016113281,-0.010375977,0.019012451
2022/12/14 18:35,7720,0.05864138,0.046441212,0.015324593,0.090105414,0.13820803,9.805263,0.00685719,0.004872877,0.93039113,0.36647177,0.14968872,0.16348267,9.93338,0.016113281,2.75E-04,9.00E-04
2022/12/14 18:35,7760,-0.034482256,-0.021894991,-0.110694885,0.0878433,0.14249781,9.805222,0.006829483,0.005119407,0.93043023,0.3663697,0.02218628,0.10003662,9.827438,-0.005187988,-0.006103516,0.007293701
2022/12/14 18:35,7800,0.013753749,-0.008895412,0.13982964,0.09104095,0.13527416,9.805295,0.006845622,0.004717836,0.93047905,0.3662508,0.09222412,0.13056946,10.053696,-0.003067017,-0.013565064,0.013687134
2022/12/14 18:35,7841,0.01448217,0.002177447,-0.03166485,0.09409204,0.14021178,9.805197,0.007083122,0.004894387,0.9304381,0.3663479,0.026977539,0.1586914,9.923813,0.021438599,-0.003982544,0.010482788
2022/12/14 18:35,7880,0.017120138,0.07225332,-0.087973595,0.097738795,0.14881088,9.805033,0.007471611,0.005258484,0.93039405,0.36644703,0.18978882,0.22514343,9.830429,0.007598877,-0.002914429,0.017944336
2022/12/14 18:35,7920,-0.007661209,-0.059993,-0.12510014,0.10307763,0.1488618,9.804978,0.007673224,0.005047261,0.9304087,0.36640862,0.12693787,0.07191467,9.884903,-0.019042969,-0.012496948,0.003036499
2022/12/14 18:35,7960,0.04387138,-0.032595277,0.14647007,0.10621611,0.1409644,9.805061,0.007709682,0.004723583,0.9304543,0.36629635,0.16525269,0.15690613,10.086014,0.009719849,-0.002914429,0.015808105
2022/12/14 18:35,8000,0.028307013,0.030883372,-0.06103611,0.11179641,0.15210095,9.804833,0.008145698,0.005127026,0.93039596,0.3664297,0.13352966,0.14492798,9.883713,0.022506714,-0.010375977,0.008361816
2022/12/14 18:35,8041,-0.010221653,-0.01036422,-0.06828308,0.1159252,0.15333734,9.804767,0.008364666,0.005108584,0.930396,0.36642492,0.10958862,0.1539154,9.846603,-0.010513306,-0.005050659,9.00E-04
2022/12/14 18:35,8080,0.0705064,0.053714693,0.06607628,0.11836753,0.1500595,9.804788,0.008418627,0.004908574,0.93044573,0.3663001,0.17362976,0.20478821,9.958527,-0.010513306,0.004547119,0.001968384
2022/12/14 18:35,8120,-0.014888577,-0.003466651,0.0551157,0.12021436,0.15152222,9.804743,0.008533176,0.004944175,0.93047446,0.36622408,0.14608765,0.11859131,9.95433,-0.001998901,-0.007171631,-0.011886597
2022/12/14 18:35,8160,-0.038485207,-0.06911865,0.05274582,0.12128486,0.1518402,9.804724,0.008589448,0.004940077,0.93050826,0.36613685,0.11557007,0.10902405,9.917221,0.0256958,-0.005050659,0.008361816
2022/12/14 18:35,8200,0.08931735,0.09180687,-0.16310692,0.12520474,0.16000454,9.804545,0.008928667,0.005252994,0.9304506,0.3662708,0.22450256,0.22393799,9.771179,-0.007324219,2.75E-04,-0.003356934
2022/12/14 18:35,8240,0.056683928,0.010967016,0.007701874,0.13118216,0.15537299,9.804542,0.009125357,0.004922369,0.9304809,0.36619374,0.19458008,0.16886902,9.962112,-0.02116394,0.005615234,-0.021469116
2022/12/14 18:35,8280,-0.056181133,0.019730553,0.18416882,0.12679249,0.15246576,9.804646,0.008861348,0.004868978,0.93059045,0.36592242,0.020401001,0.14253235,10.155441,0.008651733,0.005615234,-0.023605347
2022/12/14 18:35,8320,-0.09096161,0.007876635,0.047872543,0.11866668,0.16437331,9.804554,0.008729543,0.005709493,0.93058497,0.36592737,0.088638306,0.19580078,9.947754,0.052337646,-0.003982544,0.012619019
2022/12/14 18:35,8360,0.07594529,0.027902365,-0.26741982,0.122699335,0.18431428,9.804151,0.009263001,0.006454534,0.93049306,0.36613548,0.21792603,0.17964172,9.664032,0.013977051,0.011993408,-0.016143799
2022/12/14 18:35,8400,-0.059007995,-0.011254817,-0.08208275,0.1169474,0.17301363,9.804426,0.008779467,0.006025062,0.9304735,0.36620435,0.09820557,0.15690613,9.925003,-0.05632019,0.013061523,-0.006561279
2022/12/14 18:35,8440,0.006943546,0.00913766,0.34243298,0.11606176,0.16382699,9.804595,0.008565918,0.005605622,0.93047404,0.36621472,0.11975098,0.18203735,10.275162,0.022506714,-0.001846314,-0.002304077
2022/12/14 18:35,8481,0.03259231,0.04947737,-0.1720829,0.11609135,0.18418989,9.804234,0.008947826,0.006571034,0.9304559,0.36623558,0.14848328,0.2227478,9.647278,0.027832031,0.001342773,-0.003356934
2022/12/14 18:35,8520,0.04981859,-0.022455871,-0.032691002,0.11844918,0.1836728,9.804214,0.009051267,0.00650077,0.9303866,0.36641034,0.15986633,0.16886902,9.895081,-0.025436401,0.003479004,-0.015075684
2022/12/14 18:35,8560,-0.001865961,-9.95E-04,0.085362434,0.11920372,0.17630179,9.80434,0.008937223,0.006141101,0.93024755,0.36677232,0.11735535,0.17904663,10.015381,1.37E-04,0.005615234,-0.019348145
2022/12/14 18:35,8601,-0.044637114,0.0039839,-0.057193756,0.115035154,0.17725885,9.804374,0.008734686,0.006266243,0.9301583,0.3670013,0.1000061,0.1658783,9.889099,1.37E-04,0.007736206,-0.010818481
2022/12/14 18:35,8640,0.07831487,0.072198704,-0.028181076,0.112451665,0.17585854,9.804428,0.008625502,0.006235402,0.93010825,0.3671313,0.19158936,0.24847412,9.907043,-0.012649536,0.001342773,-0.008682251
2022/12/14 18:35,8680,0.04687172,-0.028534919,0.029717445,0.11598811,0.17273542,9.804442,0.008735074,0.006020615,0.9300893,0.36718023,0.1287384,0.12757874,9.916626,1.37E-04,0.010940552,-0.024673462
2022/12/14 18:35,8721,-0.11794842,-0.064473346,-0.03916073,0.11003394,0.16424505,9.804657,0.008293407,0.005729782,0.9301116,0.36713862,6.41E-04,0.09944153,9.888489,-0.029693604,0.013061523,-0.016143799
2022/12/14 18:35,8760,-0.08726722,-0.003737643,0.12987709,0.1027863,0.1494815,9.804972,0.007672573,0.005166196,0.9301654,0.36702415,0.011413574,0.17546082,10.0513,-0.026504517,-0.005050659,9.00E-04
2022/12/14 18:35,8800,0.030773677,0.11116235,0.064331055,0.103151105,0.15378639,9.804901,0.007771683,0.005361773,0.9300795,0.36723685,0.14250183,0.25985718,9.974686,0.019302368,0.002410889,-1.68E-04
2022/12/14 18:35,8840,-0.11377989,-0.099241346,-0.11518574,0.10021543,0.16594285,9.804734,0.007862038,0.005990786,0.92995846,0.36753175,-0.049041748,0.022232056,9.791534,0.021438599,0.002410889,0.007293701
2022/12/14 18:35,8880,0.00447306,-0.09937924,-0.11725807,0.095855705,0.15237048,9.804997,0.007401483,0.005428064,0.9299251,0.3676345,0.12335205,0.06352234,9.880707,-0.043548584,-0.005050659,0.025405884
2022/12/14 18:35,8921,0.07555997,0.003036365,0.031643867,0.10010496,0.13599794,9.805197,0.007296268,0.004571647,0.9299095,0.36768746,0.16703796,0.18383789,9.93219,-0.022232056,0.022659302,-0.008682251
2022/12/14 18:35,8960,-0.08090905,0.033293664,0.072283745,0.09132363,0.12408113,9.80544,0.006657541,0.004169446,0.92981774,0.36793646,0.018005371,0.15510559,10.10936,-0.03501892,0.001342773,0.007293701
2022/12/14 18:35,9000,0.033817872,0.04326716,0.10990143,0.08978414,0.12921117,9.805388,0.006682244,0.004439387,0.9296973,0.36823714,0.13711548,0.16468811,9.998627,0.03315735,2.75E-04,0.020080566
2022/12/14 18:35,9040,0.11587053,-0.19707148,-0.139287,0.096566476,0.13548885,9.805239,0.007121334,0.004610142,0.92971927,0.3681713,0.26759338,-0.040023804,9.766388,0.020370483,-0.007171631,0.003036499
2022/12/14 18:35,9080,-0.012902498,0.04722487,-0.22757435,0.09948645,0.12085255,9.805401,0.006987418,0.003857022,0.9294889,0.36876377,0.07008362,0.17306519,9.758011,-0.07017517,0.005615234,-0.012954712
2022/12/14 18:35,9120,-0.17577583,0.04184199,0.35544872,0.09410662,0.10355545,9.805653,0.006408326,0.003136022,0.9293589,0.36910862,-0.015518189,0.1874237,10.259598,-0.006256104,0.005615234,0.021133423
2022/12/14 18:35,9161,-0.009141177,-0.006154932,0.075852394,0.09021848,0.1182992,9.805522,0.00650095,0.00390892,0.9294156,0.36895674,0.11317444,0.010848999,9.922607,0.052337646,0.017318726,0.02859497
2022/12/14 18:35,9200,-0.015468039,0.06577733,-0.23806286,0.086822964,0.13310629,9.805362,0.00661809,0.004675281,0.92945415,0.36884868,0.08683777,0.1586914,9.695755,-0.004119873,0.005615234,0.021133423
2022/12/14 18:35,9240,0.086272754,-0.003155798,0.06474972,0.0904292,0.1258741,9.805426,0.006653367,0.004192905,0.9293853,0.3690272,0.16824341,0.13056946,10.093201,-0.02330017,-0.001846314,-0.009750366
2022/12/14 18:35,9280,-0.22212762,-0.11070805,0.015235901,0.08457476,0.12320849,9.805511,0.006327727,0.004244953,0.9292525,0.36936665,-0.16993713,0.043777466,9.889099,0.028900146,0.015197754,0.001968384
2022/12/14 18:35,9321,0.12688565,0.075831994,-0.061112404,0.081272654,0.12785764,9.80548,0.006315316,0.004509051,0.92942226,0.36893645,0.19697571,0.1940155,9.879517,-0.012649536,-0.002914429,0.037124634
2022/12/14 18:35,9360,-0.039309695,-0.006694779,0.037887573,0.08637749,0.12893312,9.805422,0.006518925,0.004485232,0.9294191,0.36894113,0.02458191,0.11859131,9.926804,0.010787964,0.010940552,0.003036499
2022/12/14 18:35,9400,0.066214845,-0.041710258,-0.008584976,0.081503384,0.13046646,9.805444,0.006316801,0.004649559,0.929418,0.3689453,0.13652039,0.12219238,9.964508,0.003326416,-0.007171631,0.021133423
2022/12/14 18:35,9440,0.06998637,0.005593225,-0.042459488,0.0857491,0.13249195,9.805381,0.006557665,0.004663511,0.9292942,0.36925256,0.13891602,0.15629578,9.897476,0.007598877,0.002410889,9.00E-04
2022/12/14 18:35,9480,0.118492946,0.007097676,0.109360695,0.09015319,0.13307895,9.805332,0.006778597,0.004606664,0.92919785,0.3694918,0.22390747,0.1431427,10.028549,0.005462647,0.003479004,-0.015075684
2022/12/14 18:35,9521,-0.006690711,-0.015903175,0.05862236,0.09520474,0.13651592,9.805237,0.007084511,0.004671607,0.92905277,0.3698499,0.062301636,0.11201477,10.036942,0.013977051,-0.003982544,-0.036392212
2022/12/14 18:35,9560,-0.11885637,-0.005431145,0.09745407,0.09033064,0.14964361,9.805092,0.007103152,0.005382868,0.92891586,0.3701836,0.017410278,0.096450806,9.982468,0.069381714,-0.002914429,-0.012954712
2022/12/14 18:35,9600,0.055589683,-0.050720796,-0.28546524,0.09430828,0.16999973,9.804724,0.00767834,0.006268981,0.9287606,0.37054762,0.18319702,0.04197693,9.744247,0.026763916,-0.013565064,-0.016143799
2022/12/14 18:35,9640,6.63E-05,-0.119526714,-0.124684334,0.09930367,0.16071643,9.804831,0.007684173,0.005616386,0.9285034,0.37120187,0.09402466,0.059936523,9.882507,-0.033950806,0.004547119,-0.02999878
2022/12/14 18:35,9680,-0.051133394,-0.059786424,0.2087555,0.09719915,0.14300534,9.805126,0.007312067,0.004925612,0.9282475,0.3718586,0.059310913,0.10003662,10.120728,-0.001998901,-0.002914429,-0.028930664
2022/12/14 18:35,9721,-0.064309046,0.037797853,-0.18806458,0.09010795,0.15033478,9.805084,0.007119664,0.005401387,0.9279538,0.37258807,0.04434204,0.19221497,9.745438,0.011856079,0.011993408,-0.027862549
2022/12/14 18:35,9760,-0.113962516,-0.06656891,-0.010877609,0.08159814,0.14272931,9.805272,0.006573694,0.005201651,0.927872,0.37280458,0.006027222,0.0790863,10.048904,-0.031829834,-0.009307861,0.010482788
2022/12/14 18:35,9800,0.091635585,0.067197114,-0.012325287,0.085073166,0.14262544,9.8052435,0.006736455,0.005130262,0.92784804,0.3728624,0.18380737,0.21496582,9.821457,0.021438599,0.006668091,0.003036499
2022/12/14 18:35,9841,0.04357622,-0.006956518,-0.26141357,0.08745485,0.14424832,9.8052,0.006881933,0.005159182,0.92770684,0.37321046,0.12155151,0.1144104,9.73526,-0.049926758,0.011993408,-0.023605347
2022/12/14 18:35,9880,-0.14284986,-0.117504746,0.2827797,0.079421885,0.112678654,9.80568,0.005901957,0.003817339,0.9276354,0.373421,-0.050231934,0.011459351,10.300903,-0.05632019,0.005615234,-0.008682251
2022/12/14 18:35,9920,-0.05788798,0.04506088,0.33657932,0.07252018,0.10593127,9.80581,0.005446425,0.003630497,0.92770034,0.37326834,0.0826416,0.19520569,10.139282,0.050201416,-0.005050659,0.031784058
2022/12/14 18:35,9961,0.2460852,0.15963933,-0.40367794,0.074103884,0.12872036,9.805526,0.005953707,0.00468013,0.9278051,0.37298828,0.24305725,0.31253052,9.502426,0.020370483,0.001342773,-0.003356934
2022/12/14 18:35,10000,-0.006216958,0.05731637,0.057073593,0.077073894,0.118089326,9.805636,0.005836572,0.0040042,0.9276091,0.37348536,0.08503723,0.18144226,10.062073,-0.055252075,0.005615234,-0.012954712
2022/12/14 18:35,10040,0.19673678,-0.0673549,0.16239071,0.07968171,0.10730579,9.805739,0.005812875,0.003556726,0.92753834,0.37366596,0.28375244,0.07609558,10.050705,0.007598877,-0.021026611,-0.008682251
2022/12/14 18:35,10080,0.13299868,-0.021305934,-0.031612396,0.09207124,0.11561314,9.805535,0.006560347,0.00370789,0.9272092,0.37446806,0.19937134,0.08807373,9.857376,0.024642944,-0.021026611,-0.054489136
2022/12/14 18:35,10120,-0.14902095,-0.055901706,-0.2817974,0.098109044,0.113747135,9.8055,0.006814044,0.003496858,0.9267937,0.37549266,-0.012527466,0.0569458,9.647873,-0.045669556,-0.024215698,-0.03211975
2022/12/14 18:35,10160,0.012864083,0.005698763,0.24879837,0.103151605,0.09046404,9.80569,0.006608242,0.002295107,0.92651796,0.3761855,0.0718689,0.09106445,10.193161,-0.0488739,-0.009307861,-0.0395813
2022/12/14 18:35,10200,-0.28682178,-0.042273313,0.24141312,0.10264334,0.08816295,9.8057165,0.006542114,0.002190107,0.9261708,0.3770412,-0.23278809,0.050964355,10.078232,0.03529358,-7.78E-04,-0.024673462
2022/12/14 18:35,10240,-0.082692765,0.07300486,-0.14759254,0.10231719,0.102275044,9.805583,0.006798543,0.002861608,0.92610073,0.37720418,0.085632324,0.18922424,9.767593,0.018249512,-0.007171631,0.015808105
2022/12/14 18:35,10280,0.027528577,0.06861723,-0.016432762,0.10253073,0.10602749,9.805542,0.006880491,0.003035406,0.92613864,0.3771083,0.13352966,0.12876892,9.83403,0.003326416,0.005615234,0.01473999
2022/12/14 18:35,10320,0.1574261,0.021129481,-0.064356804,0.10583432,0.10391099,9.805529,0.006995565,0.002872512,0.9261693,0.37703213,0.2771759,0.12757874,9.874725,-0.026504517,0.010940552,0.001968384
2022/12/14 18:35,10360,0.11232096,-0.019178182,0.08681297,0.11192166,0.09139163,9.805585,0.007043589,0.002160225,0.9259541,0.37756425,0.22869873,0.12219238,10.004608,-0.033950806,0.007736206,-1.68E-04
2022/12/14 18:35,10401,0.20059949,0.061101407,0.20118427,0.122137636,0.08207184,9.805546,0.007346619,0.001522985,0.9259247,0.37763354,0.34840393,0.1437378,10.165024,-0.03288269,-0.001846314,0.02859497
2022/12/14 18:35,10440,0.47428083,0.20292225,0.37543678,0.1395447,0.090849705,9.805237,0.008337299,0.001603388,0.92596936,0.37750325,0.68299866,0.37956238,10.282349,0.0725708,-0.027420044,0.023269653
2022/12/14 18:35,10480,0.72103184,0.5126674,-0.48783588,0.14854115,0.13272086,9.804626,0.009571016,0.003399228,0.9256399,0.37826914,0.8236542,0.6429291,9.475494,0.052337646,0.008804321,-0.058761597
2022/12/14 18:35,10520,-0.041100442,0.11364937,-0.078297615,0.14403577,0.12842003,9.804751,0.009279762,0.003270709,0.92513597,0.3795084,0.17422485,0.26045227,10.054886,-0.04034424,0.020523071,0.007293701
2022/12/14 18:35,10560,0.75602174,0.54316527,0.3430748,0.1562424,0.14042726,9.8043995,0.010086684,0.003604742,0.9252703,0.37915704,0.9738922,0.7249298,10.199738,0.10986328,-0.048721313,0.029663086
2022/12/14 18:35,10601,0.689684,0.42189252,-0.49940395,0.18033186,0.1935744,9.803081,0.012256599,0.005635002,0.924876,0.3800296,0.7260895,0.55493164,9.33902,0.08747864,-0.031677246,-0.07048035
2022/12/14 18:35,10640,-0.03497666,-0.16333468,-0.65835285,0.18853065,0.2074085,9.802644,0.012922845,0.006104762,0.9241612,0.38173532,0.0712738,-0.06037903,9.398285,-0.014785767,0.01626587,-0.050231934
2022/12/14 18:35,10680,-0.6002868,-0.18249711,-0.5216541,0.1629209,0.19720057,9.803314,0.011520945,0.006114641,0.92392904,0.38234153,-0.47221375,0.038391113,9.451553,-0.012649536,0.042892456,0.04031372
2022/12/14 18:35,10720,-0.33404014,0.34239683,-0.23786736,0.14950503,0.19582936,9.803555,0.010847249,0.006336977,0.92482704,0.38018033,-0.093933105,0.6369324,9.644287,0.002258301,0.04182434,0.18838501
2022/12/14 18:35,10761,0.7523205,0.8946515,-0.39508915,0.13067318,0.16007644,9.804473,0.009252444,0.005040374,0.9258535,0.37773573,0.9032593,1.0271912,9.666428,-0.24594116,0.059936523,0.055221558
2022/12/14 18:35,10800,-0.056373924,0.39287496,1.3281507,0.105841845,0.059495628,9.805899,0.006144097,7.58E-04,0.92514545,0.37956235,-0.12625122,0.38375854,11.290894,-0.18948364,0.11746216,-0.18232727
2022/12/14 18:35,10840,-1.5470781,0.21662977,-0.075707436,0.037035957,0.05589202,9.806421,0.002833678,0.001912303,0.92416227,0.3819848,-1.5256653,0.25746155,9.621536,0.0683136,0.1600647,0.022201538
2022/12/14 18:35,10880,-0.2811236,0.9720137,-0.8674574,-0.01785797,0.040571418,9.806549,-5.70E-05,0.002259371,0.9251328,0.37963685,-0.13342285,1.0152283,9.285751,-0.22357178,0.09295654,0.16494751
2022/12/14 18:35,10920,0.041638903,0.72513366,0.55653095,-0.04428787,-0.05570684,9.806392,-0.003164737,-0.001774961,0.925676,0.3782999,-0.02809143,0.58187866,10.640869,-0.22782898,0.06100464,0.007293701
2022/12/14 18:35,10960,-0.0617072,0.13062344,0.7411413,-0.09164609,-0.08560822,9.805848,-0.006394448,-0.0018928,0.9253218,0.3791241,-0.35787964,-0.001113892,10.531937,0.07043457,0.20907593,-0.0630188
2022/12/14 18:35,11000,-0.47203425,0.03898088,-0.21287823,-0.15886524,-0.04747192,9.805248,-0.008490643,0.001117768,0.9251661,0.379466,-0.52667236,0.028808594,9.67421,0.092819214,0.07165527,0.032852173
2022/12/14 18:35,11040,0.24627829,0.18472525,-0.22190952,-0.18136568,-0.019752773,9.804954,-0.009052359,0.002749883,0.9250814,0.37965116,0.045532227,0.14433289,9.402466,0.03955078,0.064193726,-0.091781616
2022/12/14 18:35,11080,-0.25298262,0.31953686,-0.47450638,-0.20560409,-0.02816286,9.804455,-0.010237334,0.002676255,0.9241609,0.38185686,-0.402771,0.3639984,9.485077,-0.08828735,0.029037476,-0.12586975
2022/12/14 18:35,11120,-0.24980853,0.5032007,-0.19841194,-0.2076563,-0.08745252,9.804061,-0.011488744,-5.56E-05,0.9234128,0.3836363,-0.5027313,0.3598175,9.865753,-0.22570801,-0.043395996,-0.10562134
2022/12/14 18:35,11160,-0.738623,-0.025551543,0.3136387,-0.19688685,-0.15806006,9.8034,-0.01236902,-0.003570652,0.92276335,0.38515195,-0.92051697,-0.23095703,10.229675,-0.113845825,-0.05937195,-0.0438385
2022/12/14 18:35,11201,-0.066454604,0.51348805,-0.45799828,-0.1720804,-0.18292208,9.803434,-0.011690079,-0.005227647,0.92276055,0.38516104,-0.16874695,0.34484863,9.386307,-0.090408325,-0.090270996,0.003036499
2022/12/14 18:35,11240,0.22020696,0.88972026,-0.011545181,-0.13547802,-0.23827046,9.802819,-0.011063303,-0.008540396,0.9223718,0.38605037,0.015014648,0.57229614,10.050705,-0.19480896,-0.06362915,-0.10562134
2022/12/14 18:35,11280,-0.29148728,0.81437796,0.2689085,-0.120448984,-0.29293627,9.801534,-0.01146756,-0.011373181,0.9211647,0.38883775,-0.49195862,0.4986725,10.224884,-0.10852051,-0.041259766,-0.17274475
2022/12/14 18:35,11320,-0.2375355,1.0752579,0.26760674,-0.102198176,-0.30575877,9.80135,-0.010694006,-0.012309153,0.9197652,0.39213026,-0.23937988,0.90390015,10.200333,-9.31E-04,-0.08280945,-0.14505005
2022/12/14 18:35,11360,-0.36545795,1.1305833,-0.25841713,-0.086994976,-0.27764618,9.802333,-0.009677405,-0.011245568,0.9182322,0.3957644,-0.43988037,0.85780334,9.59581,0.053390503,-0.06150818,-0.20150757
2022/12/14 18:35,11401,-0.85539526,0.9586667,-0.3490057,-0.07992728,-0.25518253,9.803003,-0.008942745,-0.010293047,0.9163252,0.4002027,-0.9690094,0.6782379,9.632919,0.027832031,-0.008239746,-0.2206726
2022/12/14 18:35,11440,-0.41620147,0.80810684,-0.47605038,-0.005059296,-0.23252146,9.803892,-0.005019109,-0.010744435,0.9149482,0.403397,-0.27348328,0.7153473,9.519196,0.03741455,-0.4897461,-0.0630188
2022/12/14 18:35,11480,0.35928488,1.4128714,0.57059,0.12605467,-0.22712,9.803209,0.001154647,-0.013194617,0.91325426,0.40717462,0.5010376,1.1618652,10.457123,-0.05419922,-0.09239197,-0.2867279
2022/12/14 18:35,11520,-0.18504027,0.87083006,1.1511211,0.15601526,-0.23957004,9.802482,0.002177007,-0.014414546,0.909973,0.41441107,-0.065200806,0.40170288,11.192734,-0.06378174,-0.1541748,-0.38578796
2022/12/14 18:35,11560,-0.75077254,0.21340257,1.6347189,0.22073525,-0.24757892,9.801039,0.004875619,-0.01619603,0.9064315,0.422014,-0.61047363,-0.17649841,11.587784,-0.008392334,-0.1456604,-0.37194824
2022/12/14 18:35,11600,-1.8543426,-1.0597051,1.7524223,0.14278279,-0.26359838,9.802067,8.26E-04,-0.015264239,0.90363413,0.42803234,-1.841095,-1.495697,11.774521,-0.020111084,0.31134033,-0.14291382
2022/12/14 18:35,11641,-1.0012302,-1.7057235,1.3879299,0.07832088,-0.20069413,9.804284,-7.57E-04,-0.010958701,0.9042642,0.426832,-0.48239136,-1.7195587,10.934158,0.5519409,0.046081543,0.26828003
2022/12/14 18:35,11680,0.92219824,-0.1829088,-1.8166199,0.07985149,0.06213215,9.8061285,0.005811824,0.002518698,0.9064053,0.42236158,0.95892334,0.018035889,7.655304,0.65527344,-0.029541016,0.11274719
2022/12/14 18:35,11720,0.8488971,-0.04354936,-1.6471825,0.05586612,0.1872886,9.804703,0.006618349,0.007450176,0.90621144,0.4227074,0.8751221,0.094055176,8.554932,-0.06803894,0.09616089,-0.10775757
2022/12/14 18:35,11760,0.20092317,-1.2857155,1.4763613,0.020562563,0.118808106,9.805908,0.00352449,0.005037081,0.9050944,0.4251663,0.15925598,-1.2245483,11.551865,-0.055252075,0.08337402,-0.10456848
2022/12/14 18:35,11801,-0.0903501,-1.6718388,0.30718708,-0.008216639,0.19637497,9.804681,0.00388347,0.009238567,0.9048143,0.42568845,-0.1561737,-1.4909058,10.005814,0.42837524,0.062072754,0.06161499
2022/12/14 18:35,11840,-0.29993868,-1.7257085,-1.5183182,-0.029917052,0.29867277,9.802055,0.005078977,0.014438828,0.9054643,0.42414638,-0.33215332,-1.3831635,8.280197,0.28775024,0.04928589,0.16920471
2022/12/14 18:35,11880,0.39512277,-0.7976537,-1.2383137,-0.03395505,0.32286257,9.801275,0.005317426,0.01567722,0.9080943,0.41843837,0.55430603,-0.26028442,8.896698,-0.102127075,-0.007171631,0.3396454
2022/12/14 18:35,11920,0.7603186,-0.2323327,-0.3659401,-0.027559886,0.25845346,9.8032055,0.004173697,0.01257899,0.9102973,0.41374287,0.75660706,0.043182373,9.629929,-0.18095398,-0.025283813,0.23738098
2022/12/14 18:35,11960,0.52915365,-0.3946741,0.29745483,-0.004704947,0.19012146,9.804807,0.003762324,0.008937291,0.9117392,0.4106551,0.47470093,-0.2177887,10.343994,-0.1234436,-0.014633179,0.14790344
2022/12/14 18:35,12001,0.4768744,-0.15605325,-0.061214447,-0.001255486,0.16695473,9.805228,0.003344718,0.007751325,0.91249675,0.40899688,0.54771423,0.034194946,9.738861,-0.02116394,0.034362793,0.06161499
2022/12/14 18:35,12040,0.6228852,-0.26367784,-0.18597412,-0.00712562,0.12675673,9.805828,0.002154887,0.005555951,0.91235584,0.40935475,0.59620667,-0.20701599,9.966904,-0.19587708,-0.003982544,-0.03211975
2022/12/14 18:35,12080,0.15387948,-0.729167,0.72940636,0.007662077,0.04947078,9.806522,0.001392299,0.002139204,0.9117305,0.41078088,0.2083435,-0.6194153,10.518173,-0.06484985,-0.0476532,0.001968384
2022/12/14 18:35,12120,0.65424,-0.46272355,-0.027835846,0.045154657,0.05174614,9.80641,0.003182945,0.001459479,0.91169536,0.4108519,0.67700195,-0.38119507,9.808884,0.059783936,-0.09132385,0.011550903
2022/12/14 18:35,12160,0.121605985,-0.28589565,-0.45067883,0.0778388,0.061833467,9.806147,0.004915468,0.001236238,0.9110624,0.41223735,0.13531494,-0.22377014,9.519196,0.011856079,-0.064697266,-0.059814453
2022/12/14 18:35,12200,-0.19542304,0.013782494,-0.41472816,0.08977495,0.062061083,9.806043,0.005476285,9.87E-04,0.9104124,0.41366455,-0.10649109,0.15570068,9.529968,0.020370483,-0.03274536,-0.017211914
2022/12/14 18:35,12241,-0.15800805,0.40821487,-0.9250679,0.11109407,0.07243766,9.805754,0.006684947,0.001018517,0.9103528,0.41377774,0.042541504,0.6136017,9.014008,-0.03288269,-0.10517883,0.06907654
2022/12/14 18:35,12280,0.1262243,0.6606323,-0.45897484,0.16149995,0.03483849,9.805259,0.008233075,-0.001782912,0.91070753,0.41296592,0.24246216,0.7470703,9.580246,-0.17990112,-0.074279785,0.06375122
2022/12/14 18:35,12320,-0.2673526,0.6953247,-0.00335598,0.1618451,-0.03194939,9.805263,0.006846353,-0.004886538,0.9110111,0.4122961,-0.17054749,0.6165924,9.963913,-0.18522644,0.022659302,0.099975586
2022/12/14 18:35,12360,-0.68614465,0.2670513,0.39227676,0.15512033,-0.088973045,9.80502,0.005349822,-0.007383505,0.9118188,0.41049156,-0.5380554,0.050964355,10.355362,-0.09680176,0.011993408,0.21289062
2022/12/14 18:35,12400,0.06334706,0.562226,-0.44668865,0.13667461,-0.09319658,9.805254,0.004465687,-0.007309533,0.91382253,0.40602335,0.3466034,0.5740967,9.365356,0.038482666,0.03010559,0.37586975
2022/12/14 18:35,12441,1.3486061,1.4384096,-0.7585697,0.13307615,-0.09434886,9.805293,0.004297598,-0.00712124,0.9166563,0.39958978,1.5574799,1.4042816,9.290543,-0.10319519,0.026916504,0.29811096
2022/12/14 18:35,12480,0.5165841,1.0747616,-0.10157108,0.13847245,-0.125718,9.804867,0.003921709,-0.008692518,0.91715056,0.39842686,0.41903687,0.8631897,9.786148,-0.09893799,0.010940552,0.005157471
2022/12/14 18:35,12520,-0.71434623,0.63726425,-0.030812263,0.12990458,-0.14706177,9.8046875,0.003094706,-0.009514291,0.91745114,0.39772257,-0.54403687,0.5495453,9.906448,-0.043548584,0.011993408,0.2150116
2022/12/14 18:35,12560,-0.10986858,1.1943797,0.3499689,0.11219073,-0.15548608,9.804775,0.002138467,-0.00953953,0.919248,0.39355758,-0.017913818,1.0936279,10.266174,-0.045669556,0.050354004,0.3130188
2022/12/14 18:35,12600,0.506168,1.6065171,1.0539904,0.10225033,-0.14951758,9.804976,0.001846332,-0.009049383,0.921585,0.38806674,0.78115845,1.5946198,11.137665,0.052337646,0.014129639,0.41316223
2022/12/14 18:35,12641,1.7075835,1.8327323,0.64711666,0.08163856,-0.102073565,9.8057785,0.001850524,-0.006402184,0.9236508,0.38317716,1.8142548,1.528183,10.422409,-0.012649536,0.12171936,0.16708374
2022/12/14 18:35,12680,0.8186951,0.18518433,2.2434692,0.10842105,-0.13584208,9.80511,0.002441031,-0.008519116,0.9231345,0.38437504,0.7147217,-0.33390808,12.465256,-0.06378174,-0.06895447,-0.07473755
2022/12/14 18:35,12720,-0.06613309,-1.0220019,0.9315605,0.076878466,-0.08178623,9.806007,0.001723637,-0.004583458,0.9225025,0.38596004,-0.14001465,-1.03302,10.378708,0.2813568,0.22291565,0.044570923
2022/12/14 18:35,12760,0.73055387,0.72563756,0.22036743,0.02741489,-0.051340535,9.806478,2.84E-04,-0.002953845,0.9231455,0.38443935,0.9709015,0.7327118,10.466095,-0.09147644,-0.13394165,0.13406372
2022/12/14 18:35,12800,0.7463379,0.21586424,1.8279953,0.14238621,-0.012932852,9.805608,0.006444843,-0.003406542,0.922718,0.3854067,0.66622925,0.09764099,11.614716,0.38150024,-0.2244873,-0.12800598
2022/12/14 18:35,12841,-0.28286046,-1.0227156,-0.57841206,0.13965583,0.21818541,9.803227,0.010883181,0.007485936,0.92140603,0.38837674,-0.29862976,-0.9216919,9.434799,0.7042694,0.046081543,-0.15249634
2022/12/14 18:35,12880,-0.7234972,-1.2230983,-2.3239555,0.06933696,0.46932504,9.795168,0.012577718,0.02066965,0.9208,0.38928387,-0.54403687,-0.94921875,7.4039154,0.50294495,-0.014633179,-0.025726318
2022/12/14 18:35,12920,0.19811197,-1.1944573,-1.5324678,0.039571594,0.44931868,9.796271,0.010830097,0.020294737,0.9198986,0.3914809,0.15925598,-0.68466187,8.670441,-0.4323578,0.013061523,-0.2814026
2022/12/14 18:35,12960,-1.4855232,-1.5145502,2.3493319,0.044759307,0.22578503,9.803948,0.006678822,0.009651039,0.9171945,0.39826688,-1.7028351,-1.3394775,12.647217,-0.35992432,-0.08920288,-0.27607727
2022/12/14 18:35,13000,-1.7935662,-1.7754653,1.5258083,0.023286946,0.22696733,9.803995,0.005651333,0.011379814,0.9170833,0.3984931,-1.560379,-1.1856537,10.654633,0.46565247,0.1835022,0.21928406
2022/12/14 18:35,13041,-0.16527058,-0.4633483,-2.0003462,-0.02547833,0.41926467,9.797651,0.007536457,0.02102801,0.91894376,0.39375553,0.13531494,0.11619568,7.868393,0.39215088,0.042892456,0.25230408
2022/12/14 18:35,13080,1.0355259,-0.34643537,-1.8880949,-0.025642727,0.4877942,9.794477,0.008483665,0.023209613,0.91917914,0.3930636,0.99005127,0.074295044,8.303528,-0.06271362,0.033309937,-0.0864563
2022/12/14 18:35,13120,-0.029226026,-0.8745384,-0.19347095,-0.02751357,0.3910723,9.79881,0.006636763,0.018858692,0.9174853,0.39726692,-0.18251038,-0.575119,9.876526,-0.29174805,0.01626587,-0.25050354
2022/12/14 18:35,13160,-0.66428167,-0.8448913,0.8987541,-0.07059438,0.29729277,9.801888,0.002776864,0.015331643,0.9160836,0.4006845,-0.7529297,-0.5290375,10.892868,-0.08828735,0.12704468,-0.1098938
2022/12/14 18:35,13200,-0.86933976,-0.7060689,-0.1476593,-0.11475407,0.31904152,9.800787,0.001177832,0.01724924,0.9156021,0.40171367,-0.98457336,-0.34707642,9.6772,0.16950989,0.06100464,0.023269653
2022/12/14 18:35,13241,-0.06814195,-0.09697968,-1.3673697,-0.12935466,0.36915603,9.798846,0.001494626,0.019891677,0.9161258,0.4003944,-0.012527466,0.38674927,8.541153,0.028900146,0.031173706,0.1053009
2022/12/14 18:35,13280,0.5885363,-0.009953141,-0.22197914,-0.14137556,0.29067189,9.801322,-6.76E-04,0.01646846,0.916343,0.4000549,0.44955444,0.16647339,10.153061,-0.3631134,0.01838684,-0.058761597
2022/12/14 18:35,13320,0.034476623,-0.44351953,1.4387226,-0.13021703,0.1937571,9.803871,-0.002100178,0.011716677,0.91530687,0.4025812,-0.26211548,-0.23036194,11.368713,-0.012649536,-0.055114746,-0.113082886
2022/12/14 18:35,13360,0.14588717,0.014923513,-0.37618828,-0.114564,0.24855205,9.80283,-2.18E-04,0.013953671,0.9145031,0.4043381,0.028182983,0.45318604,9.200165,0.20147705,-0.050857544,-0.050231934
2022/12/14 18:35,13400,0.45647156,0.87452304,-1.2537737,-0.07682232,0.27650768,9.80245,0.002337523,0.014099609,0.9133409,0.40694487,0.39868164,1.1469116,9.009827,-0.14154053,-0.123291016,-0.19084167
2022/12/14 18:35,13440,-0.20694572,0.6911882,0.42192078,-0.039984487,0.22119442,9.804073,0.002795438,0.011115174,0.91088706,0.41249648,-0.35968018,0.86079407,10.316452,-0.069107056,-0.022094727,-0.3410492
2022/12/14 18:35,13480,-0.9648441,0.5019891,-0.2802868,-0.04279923,0.25103924,9.803343,0.003373832,0.012539263,0.90817857,0.4183815,-0.9767914,0.757843,9.530563,0.14927673,-0.04232788,-0.24943542
2022/12/14 18:35,13521,-0.61405224,0.7432859,-0.8674679,-0.03578772,0.2961021,9.802114,0.004715872,0.014459013,0.90653116,0.42186493,-0.6661377,1.0194092,9.099609,0.021438599,-0.06790161,-0.12800598
2022/12/14 18:35,13560,-0.25143558,0.7720474,-0.31909084,-0.010553369,0.2964802,9.802161,0.005924643,0.013919143,0.90549845,0.4240798,-0.25193787,1.0960236,9.549118,-0.02116394,-0.07002258,-0.08538818
2022/12/14 18:35,13600,-0.07860963,1.1782339,-0.14900494,0.007642551,0.29972747,9.802066,0.006866733,0.01365977,0.90451366,0.42617056,-0.005340576,1.5712738,9.740051,-0.009460449,-0.025283813,-0.087524414
2022/12/14 18:35,13640,0.03841497,1.3407338,0.07956505,0.02271945,0.3074483,9.801804,0.007775314,0.013662675,0.90309227,0.42915872,-0.13163757,1.5084229,10.085419,-0.006256104,-0.037002563,-0.22706604
2022/12/14 18:35,13680,-1.0769768,0.93433905,0.58510685,0.015010866,0.34306136,9.800636,0.008254439,0.015443063,0.9015476,0.4323254,-1.0366364,1.3192902,10.610352,0.16204834,0.05354309,0.007293701
2022/12/14 18:35,13720,0.94472474,1.5404458,0.3739891,-0.030003844,0.41724613,9.797723,0.007796332,0.019857796,0.90201604,0.43117508,1.1438751,1.9657288,10.452927,0.05126953,0.04928589,-0.052368164
2022/12/14 18:35,13761,0.32825407,-0.49088725,2.6657476,-0.01493925,0.3933058,9.798749,0.008097062,0.018365823,0.8988666,0.4377625,0.12992859,-0.34887695,12.745972,-0.10533142,-0.027420044,-0.43798828
2022/12/14 18:35,13800,-1.4755813,-2.2710986,3.2549305,-0.011567405,0.38824263,9.798955,0.008430686,0.018471105,0.8954321,0.44473484,-1.7040253,-2.092453,12.93811,0.28562927,-0.014633179,-0.25689697
2022/12/14 18:35,13840,-1.1018118,-2.0768209,0.44367313,-0.04647171,0.51297367,9.793115,0.009540873,0.024476795,0.894844,0.44560534,-0.76130676,-1.2472992,9.67601,0.5231781,0.11532593,0.057357788
2022/12/14 18:35,13880,0.9327487,-1.1435158,-1.5170279,-0.047527373,0.62962186,9.786302,0.01211186,0.029845864,0.8952097,0.44447958,0.90805054,-0.49790955,8.51123,-0.009460449,-0.03807068,-0.054489136
2022/12/14 18:35,13920,0.96920085,-0.8301029,-0.28009892,-0.04779562,0.57332313,9.78976,0.010867516,0.02725892,0.89453685,0.44602984,0.9553375,-0.17349243,9.860962,-0.1511383,0.015197754,-0.17486572
2022/12/14 18:35,13960,0.29307082,-0.99233204,0.64147663,-0.032116517,0.5322879,9.792141,0.010757157,0.024980884,0.8926461,0.44993687,0.14729309,-0.53622437,10.650452,0.038482666,-0.101989746,-0.27819824
2022/12/14 18:35,14001,-0.6266417,-1.2589619,-0.11120033,-0.010299352,0.59710133,9.78845,0.013347234,0.0273826,0.8907956,0.45338202,-0.62124634,-0.5817108,9.528763,0.3559265,-0.034866333,-0.0821991
2022/12/14 18:35,14040,-0.23593184,-0.6271612,-2.1456146,-0.01959278,0.7122474,9.780731,0.015581474,0.032843653,0.89076567,0.4530067,-0.15975952,0.16708374,7.7049866,0.14607239,0.029037476,0.08079529
2022/12/14 18:35,14081,-0.18255275,-0.8437299,-1.2516365,-0.030953376,0.67568713,9.783296,0.0137529,0.030821469,0.89136857,0.45202103,-0.24716187,-0.21240234,8.902084,-0.28216553,0.038635254,0.04244995
2022/12/14 18:35,14120,0.09701976,-0.76973665,0.2670498,-0.04637502,0.53443706,9.791966,0.009627357,0.024637,0.8923401,0.45058787,0.08444214,-0.16990662,10.430786,-0.36099243,0.066329956,0.10635376
2022/12/14 18:35,14160,0.13987342,-0.29679462,1.1336346,-0.07590021,0.41785204,9.79745,0.00610422,0.020780206,0.89343286,0.44867435,0.033569336,0.1874237,11.068237,-0.11065674,0.04396057,0.13725281
2022/12/14 18:35,14200,0.34681314,0.18833739,0.47268772,-0.07478606,0.42900255,9.796977,0.006343212,0.021283234,0.89483196,0.44585034,0.33343506,0.6423187,10.377518,0.12477112,-0.003982544,0.18199158
2022/12/14 18:35,14240,0.007181227,0.043931544,-0.49077988,-0.08869414,0.4957999,9.793708,0.00716679,0.024668563,0.89586395,0.44358528,-0.18789673,0.53279114,9.216324,0.1663208,0.064193726,0.12872314
2022/12/14 18:35,14280,-0.11191188,-0.11359584,-0.78690434,-0.1159512,0.5226347,9.792027,0.006476801,0.026525782,0.8966895,0.44181713,-0.27288818,0.42385864,9.271988,-0.05206299,0.07058716,0.16281128
2022/12/14 18:35,14321,-0.12917253,-0.027104676,0.068481445,-0.15858305,0.50414515,9.792399,0.004017052,0.02665473,0.8982243,0.43871006,-0.26391602,0.51782227,9.908249,0.028900146,0.14729309,0.29917908
2022/12/14 18:35,14360,-0.37557617,0.20287806,-0.42890072,-0.17005557,0.53134173,9.790769,0.004276231,0.028238438,0.90167356,0.4314732,-0.3812256,0.67344666,9.442581,0.073638916,-0.111572266,0.5186157
2022/12/14 18:35,14400,0.48204082,0.21955854,-0.28873634,-0.11655111,0.56031114,9.789937,0.006998747,0.028552916,0.9055183,0.42328763,0.3968811,0.80332947,9.617355,0.08428955,-0.04232788,0.46855164
2022/12/14 18:35,14440,0.94576246,1.0894139,-1.7251081,-0.116802104,0.6271994,9.785876,0.007947242,0.031560067,0.90814924,0.41737968,0.83322144,1.7705994,8.140137,0.11198425,0.13343811,0.31834412
2022/12/14 18:35,14480,1.2854874,1.2533077,-0.673357,-0.14338158,0.5462476,9.790375,0.004910605,0.028384648,0.90941995,0.4148802,1.1223297,1.7328796,9.554504,-0.5048065,0.031173706,0.10102844
2022/12/14 18:35,14521,0.5867037,0.48810092,1.7693148,-0.13676152,0.38354194,9.798193,0.001772186,0.020689908,0.90961546,0.41493195,0.37294006,0.82907104,11.664398,-0.24913025,0.04928589,0.021133423
2022/12/14 18:35,14560,0.002682596,0.33696923,-0.44056797,-0.19446856,0.39446545,9.796783,-6.86E-04,0.022418518,0.9098117,0.41441485,-0.32077026,0.8332672,9.119354,0.1386261,0.16433716,0.058425903
2022/12/14 18:35,14600,-1.2337644,0.42281446,-1.0385284,-0.2285695,0.44377604,9.793938,-0.001239452,0.025429185,0.9099516,0.4139322,-1.54422,0.94758606,8.967926,0.07043457,0.02798462,0.14576721
2022/12/14 18:35,14641,0.072279125,1.4638684,-0.94455147,-0.2480399,0.46415374,9.792519,-0.001861602,0.026777457,0.9122001,0.4088649,0.29153442,2.1051788,9.063095,-0.08508301,-0.011444092,0.4152832
2022/12/14 18:35,14680,1.4260174,1.5938439,0.33380032,-0.1954682,0.43098167,9.795225,-2.26E-04,0.024134327,0.91427785,0.404368,1.088211,1.9286041,10.417023,-0.13835144,-0.09239197,0.12234497
2022/12/14 18:35,14720,0.30141926,0.97477674,1.0633583,-0.16605379,0.42511022,9.796024,0.001181255,0.023466175,0.91428417,0.40439135,-0.062805176,1.4108582,10.93895,0.07577515,-0.017822266,0.008361816
2022/12/14 18:35,14760,-0.11144307,1.0244192,0.48070908,-0.16811806,0.47858882,9.793523,0.00199843,0.026042193,0.91412824,0.40458295,-0.27648926,1.418045,10.156647,0.0725708,0.057800293,0.07972717
2022/12/14 18:35,14800,0.37095207,0.040948123,1.0890474,-0.16889659,0.44296807,9.795184,0.001179899,0.023521455,0.9141,0.40480435,0.23947144,0.25506592,11.433945,-0.24275208,-0.055114746,0.060546875
2022/12/14 18:35,14841,0.02807875,-0.6320654,1.7918234,-0.14977606,0.39280257,9.797636,0.001131899,0.021408888,0.9140555,0.40502205,-0.062805176,-0.20103455,11.477051,0.03955078,0.015197754,0.17453003
2022/12/14 18:35,14880,1.1940459,0.16408211,1.5522995,-0.16315356,0.3810734,9.797885,2.30E-04,0.021138676,0.91474694,0.40347385,0.9026642,0.42744446,11.75058,-0.080825806,0.02798462,0.025405884
2022/12/14 18:35,14920,-0.35770696,-1.1824489,1.1685715,-0.1781615,0.44606644,9.79488,9.48E-04,0.024479005,0.9133415,0.40645686,-0.6649475,-0.83309937,10.6779785,0.46458435,0.059936523,-0.052368164
2022/12/14 18:35,14961,-0.37245446,-1.6941626,-1.552352,-0.18906087,0.63871974,9.784001,0.004462653,0.03368765,0.91277033,0.40705717,-0.318985,-0.97076416,8.106018,0.4688568,-0.04978943,0.12446594
2022/12/14 18:35,15000,0.8756343,-1.2734337,-2.2971869,-0.15892226,0.6910189,9.780983,0.006922523,0.035507057,0.91306156,0.40621415,0.75961304,-0.51945496,7.8755646,-0.24487305,-0.06150818,-0.04597473
2022/12/14 18:35,15040,0.560472,-1.1042049,0.93668747,-0.130951,0.49473616,9.793287,0.003823454,0.024434453,0.9109585,0.4117559,0.18081665,-0.614624,11.321426,-0.5410156,-0.04978943,-0.38259888
2022/12/14 18:35,15080,-1.2064289,-1.360332,1.9916506,-0.14576358,0.3508507,9.799288,7.32E-04,0.019360589,0.9081396,0.41821894,-1.5633698,-1.021637,11.801468,-0.038208008,0.066329956,-0.30163574
2022/12/14 18:35,15120,-1.0924412,-1.154996,-0.1914568,-0.17751336,0.4118142,9.7963915,8.73E-04,0.023719879,0.9067686,0.4209599,-1.0623779,-0.6253967,9.577255,0.39001465,0.033309937,0.029663086
2022/12/14 18:35,15160,0.28978178,-0.28470373,-1.9778442,-0.20401059,0.55430716,9.788846,0.002479586,0.030026643,0.9064361,0.42126694,0.05570984,0.29637146,7.864792,0.18655396,0.09509277,-0.077926636
2022/12/14 18:35,15201,0.19634882,-0.66495764,-0.9752798,-0.20605284,0.5430246,9.789435,0.002241722,0.02954084,0.90503025,0.42431417,0.05630493,-0.14237976,9.084045,-0.11917114,-0.10411072,-0.1461029
2022/12/14 18:35,15240,0.34589076,-0.8690347,0.010497093,-0.1812196,0.49029365,9.79271,0.002376593,0.026554257,0.903019,0.4287725,0.07965088,-0.39735413,9.975281,-0.08828735,0.010940552,-0.27500916
2022/12/14 18:35,15280,-0.569391,-0.56177706,-0.060671806,-0.19294344,0.47147387,9.79341,0.001560623,0.025935352,0.90077573,0.43350667,-0.79003906,-0.011291504,9.773575,0.03529358,0.001342773,-0.16209412
2022/12/14 18:35,15320,-0.44924986,-0.06786704,-0.51965714,-0.19583553,0.46274716,9.793768,0.001322911,0.025593618,0.8992843,0.43661302,-0.65356445,0.39213562,9.483276,-0.11172485,-0.01889038,-0.11947632
2022/12/14 18:35,15360,-0.4960271,-0.05310759,0.5454998,-0.19747448,0.40702498,9.79621,8.37E-05,0.023071954,0.8978727,0.43965018,-0.6338196,0.4334259,10.403854,-0.082962036,0.03543091,-0.09390259
2022/12/14 18:35,15400,-0.10692838,0.07286808,-0.029211044,-0.20778942,0.4066169,9.796013,-3.29E-04,0.023285799,0.89656407,0.44230145,-0.3231659,0.49449158,9.77298,0.071502686,-0.006103516,-0.09817505
2022/12/14 18:35,15441,-0.172795,0.1549803,-0.73158836,-0.19955653,0.44359246,9.7945795,0.001047577,0.025014639,0.89514375,0.445074,-0.3123932,0.678833,9.06369,0.094940186,2.75E-04,-0.068344116
2022/12/14 18:35,15480,0.3438269,0.5644309,-1.3369312,-0.19022822,0.44142348,9.794864,0.001410029,0.024474015,0.89380246,0.44779032,0.1694336,1.034378,8.851212,-0.14900208,-0.07748413,-0.14717102
2022/12/14 18:35,15520,-0.6933345,0.56962067,-0.29441166,-0.15901096,0.36556512,9.798543,0.001219192,0.020293139,0.89125067,0.45305508,-0.8965759,0.931427,9.61676,-0.20333862,-0.08494568,-0.24943542
2022/12/14 18:35,15560,-0.78438085,0.4501525,0.21036339,-0.13465172,0.309965,9.800826,0.001121296,0.017196633,0.88919467,0.45720443,-0.96481323,0.7452698,10.206329,-0.07763672,-0.09346008,-0.13438416
2022/12/14 18:35,15600,-0.40450346,0.63520694,-0.08319378,-0.09833438,0.3148572,9.801101,0.002916418,0.016565572,0.8882585,0.4590358,-0.3812256,1.0242004,9.752029,0.027832031,-0.13287354,0.007293701
2022/12/14 18:35,15641,0.6272842,1.192358,-0.18065262,-0.05205791,0.3055762,9.80175,0.00482502,0.015052057,0.88737,0.46078703,0.47050476,1.4437866,9.790329,-0.12556458,-0.08706665,-0.16314697
2022/12/14 18:35,15680,-0.39464867,0.7872822,-0.006093979,-0.01810301,0.2701881,9.80291,0.005596674,0.012622879,0.884948,0.4654851,-0.41833496,0.9565582,9.790329,-0.07550049,-0.09132385,-0.1929779
2022/12/14 18:35,15720,-0.37673348,0.715667,-0.6855211,0.024879545,0.257946,9.803226,0.007284042,0.011024813,0.8833349,0.4685562,-0.23039246,0.9822998,9.228897,-0.059524536,-0.15844727,-0.07366943
2022/12/14 18:35,15761,0.21834984,1.1006093,-0.5861292,0.07959646,0.23194203,9.803584,0.009276792,0.008140608,0.88220555,0.47070268,0.30052185,1.4348145,9.268402,-0.14048767,-0.11689758,-0.0907135
2022/12/14 18:35,15800,0.40170437,1.927731,-0.11433792,0.13041648,0.16719773,9.804358,0.009892295,0.00436363,0.8809025,0.47317424,0.6177521,2.1919708,9.9387665,-0.28216553,-0.15631104,-0.18765259
2022/12/14 18:35,15840,0.29803675,1.3779192,1.5063467,0.20654272,0.024023654,9.804445,0.00982413,-0.003986986,0.87689954,0.48055673,0.3454132,1.3103027,11.602737,-0.47177124,-0.13500977,-0.5040436
2022/12/14 18:35,15880,-0.73915017,-0.54056066,2.919797,0.21098039,-0.14139973,9.803361,0.005836286,-0.011560892,0.87127894,0.49061725,-0.5643921,-0.89834595,12.945297,-0.3822937,0.11213684,-0.53492737
2022/12/14 18:35,15920,-1.7885518,-2.2662823,3.2632198,0.12119005,-0.25837243,9.802497,-0.001218221,-0.014500932,0.8665339,0.49890605,-1.9033508,-2.6449127,13.159576,-0.13195801,0.29536438,-0.3612976
2022/12/14 18:35,15960,-1.905824,-2.2812362,0.5440464,-0.04812344,-0.21875511,9.804091,-0.007701667,-0.00843327,0.86599445,0.4999232,-1.8476715,-2.365982,10.253616,0.37724304,0.34010315,0.20542908
2022/12/14 18:35,16000,-0.21138394,-0.99120075,-1.3836708,-0.13072355,-0.043150965,9.805684,-0.006882834,0.001375589,0.86973363,0.49347156,-0.050827026,-0.85105896,8.216751,0.5274353,0.1749878,0.4653473
2022/12/14 18:35,16041,0.94139117,-0.14733283,-2.6970196,-0.18763502,0.076238565,9.804559,-0.006465017,0.008052736,0.87348163,0.48674756,0.89308167,-0.105270386,7.5798798,-0.015838623,0.078048706,0.3098297
2022/12/14 18:35,16080,1.7687955,-0.58889186,-0.1308136,-0.18394594,-0.00266996,9.804925,-0.008276369,0.00441438,0.8753773,0.4833494,1.677185,-0.6840668,10.229675,-0.29174805,0.045028687,0.06907654
2022/12/14 18:35,16120,0.72870547,-1.3957845,1.1817875,-0.19017424,-0.07901272,9.804487,-0.010444423,0.001265291,0.8743563,0.48517045,0.085632324,-1.5160522,11.004196,0.05126953,0.034362793,-0.17060852
2022/12/14 18:35,16160,-0.70122087,-1.2004449,-0.9698267,-0.20078124,-0.01638459,9.804581,-0.009356316,0.004238442,0.8742695,0.48533222,-0.8636627,-1.1461487,8.821274,0.14500427,-7.78E-04,0.13832092
2022/12/14 18:35,16200,-0.026659608,-0.81014156,-0.044672966,-0.2015104,-0.047140013,9.804466,-0.010161188,0.002845682,0.87615913,0.48190644,-0.2142334,-0.80796814,10.0914,-0.16923523,-0.01889038,0.23312378
2022/12/14 18:35,16241,0.30352986,-0.092895284,0.6145363,-0.19674751,-0.06556701,9.804457,-0.010410749,0.001852559,0.87859416,0.4774521,0.12992859,-0.08370972,10.400253,0.108795166,0.02798462,0.3140869
2022/12/14 18:35,16280,0.5615592,0.18139368,-0.7871113,-0.20216474,-0.002900485,9.804565,-0.009147944,0.004753265,0.8806098,0.47372997,0.27178955,0.1479187,9.196564,0.12690735,0.015197754,0.17559814
2022/12/14 18:35,16320,-0.64198744,-0.49534225,-0.8559952,-0.2107638,0.021691844,9.80436,-0.008952638,0.006046719,0.88158697,0.47189796,-0.9007721,-0.50927734,9.134323,0.010787964,0.007736206,0.19584656
2022/12/14 18:35,16360,0.35664785,-0.64326495,-0.56884766,-0.2170379,0.008768334,9.804244,-0.009574289,0.005567856,0.88398623,0.46738172,0.31188965,-0.5416107,9.388107,-0.05845642,2.75E-04,0.34710693
2022/12/14 18:35,16400,0.71371853,-0.38268515,-0.60197353,-0.21043155,-0.03786049,9.804319,-0.010403353,0.003259223,0.8861956,0.46318305,0.3861084,-0.35186768,9.488663,-0.1820221,-0.03807068,0.24804688
2022/12/14 18:35,16441,0.40847844,-0.24449337,-0.17436695,-0.19038609,-0.09959396,9.804296,-0.011035276,-3.41E-04,0.8881936,0.4593367,0.21852112,-0.23155212,9.737656,-0.12237549,-0.019958496,0.2576294
2022/12/14 18:35,16480,0.45113075,0.30869102,-0.30930328,-0.19146754,-0.14677781,9.803681,-0.012104668,-0.002191602,0.8892607,0.45723525,0.12693787,0.20718384,9.7209015,-0.15539551,0.045028687,0.15536499
2022/12/14 18:35,16520,-0.004559696,0.56266475,0.23677063,-0.2125821,-0.21293835,9.802032,-0.014596245,-0.004727864,0.89010537,0.4554965,-0.17173767,0.37657166,10.244629,-0.1543274,0.048217773,0.15216064
2022/12/14 18:35,16560,0.1230012,0.7074934,0.57534313,-0.23147178,-0.238245,9.801023,-0.016035445,-0.005457209,0.8906283,0.45441645,-0.093933105,0.48191833,10.50441,-0.003067017,0.05354309,0.12553406
2022/12/14 18:35,16600,0.15788904,0.75933754,-0.15668583,-0.25376508,-0.20278314,9.801269,-0.016221147,-0.00335389,0.8913086,0.45309448,-0.08494568,0.5681,9.745438,0.07896423,0.033309937,0.18199158
2022/12/14 18:35,16641,-0.04901436,0.55276513,-0.08175182,-0.2619765,-0.17200017,9.8016405,-0.015879443,-0.001795984,0.892204,0.45134982,-0.40516663,0.42504883,9.768188,0.061920166,0.03224182,0.20649719
2022/12/14 18:35,16680,-0.25198406,0.8992032,-0.4732685,-0.28510207,-0.14886527,9.801374,-0.016398462,-2.67E-04,0.89372563,0.44831407,-0.53685,0.8332672,9.497635,-0.022232056,0.050354004,0.31834412
2022/12/14 18:35,16720,-0.11265406,1.299498,0.30858517,-0.30331755,-0.13838485,9.8009815,-0.016992029,5.47E-04,0.89581746,0.44409686,-0.5147095,1.1642609,10.220093,0.045944214,0.050354004,0.35136414
2022/12/14 18:35,16760,-0.6473043,1.288528,-0.12747955,-0.33479273,-0.07371003,9.800657,-0.016988708,0.00412006,0.89828503,0.4390654,-1.0055237,1.2091522,9.773575,0.16950989,0.06845093,0.4855957
2022/12/14 18:35,16800,-0.5007865,1.2807721,0.054032326,-0.36100152,0.031854626,9.799952,-0.015651042,0.010218712,0.9028393,0.42957163,-0.8744354,1.3085175,9.948349,0.29734802,0.036499023,0.6560364
2022/12/14 18:35,16840,0.31182224,1.5065395,-0.37270546,-0.3665619,0.16602512,9.79839,-0.013387388,0.015553325,0.90675676,0.42115438,0.004241943,1.5102234,9.513199,0.2451477,-0.022094727,0.69758606
2022/12/14 18:35,16880,-0.56457746,-0.40371022,1.4776773,-0.3650106,0.21000645,9.797604,-0.012594795,0.017394733,0.9120557,0.4095037,-0.9773865,-0.3955536,11.526733,-0.11810303,0.048217773,0.73379517
2022/12/14 18:35,16921,-0.15059778,-1.8022304,1.823597,-0.39273804,0.16092649,9.7974615,-0.015117714,0.015490608,0.91742617,0.39731684,-0.57455444,-1.6854401,11.753586,-0.13621521,0.12918091,0.79345703
2022/12/14 18:35,16960,0.3490678,-1.1104199,2.074603,-0.40601656,0.10034153,9.797728,-0.017148942,0.012681837,0.92298937,0.38423398,0.085632324,-0.93785095,11.953491,-0.12449646,-0.027420044,0.8147583
2022/12/14 18:35,17000,-0.81814396,-1.5074677,0.99703693,-0.37596396,0.07334478,9.799167,-0.016374957,0.01065056,0.92699516,0.3745643,-1.5430145,-1.5956573,10.993423,-0.017974854,-0.13926697,0.6283417
2022/12/14 18:35,17040,-1.5449371,-1.9330871,0.22184753,-0.32051712,0.12946247,9.800556,-0.012836522,0.012080786,0.9317484,0.36267647,-1.8674316,-1.7955627,9.644287,0.39215088,-0.1456604,0.9500427
2022/12/14 18:35,17080,-1.0498428,-1.5041151,-2.6008797,-0.2881582,0.27085608,9.798674,-0.009014819,0.018040612,0.9381713,0.34558326,-1.2317657,-1.1359711,7.208191,0.20999146,-0.08494568,1.0523071
2022/12/14 18:35,17121,-0.8837104,-1.2480717,-2.4113102,-0.26655152,0.2504853,9.799826,-0.008971006,0.01568871,0.9452767,0.32576892,-1.055191,-1.0443878,7.849228,-0.33436584,-0.002914429,0.9575043
2022/12/14 18:35,17160,-0.7525735,-1.1117514,-0.3766365,-0.31155482,0.053957682,9.801552,-0.01425135,0.007540838,0.950613,0.3099596,-1.1868744,-1.0419922,9.85498,-0.48776245,0.15687561,0.8616333
2022/12/14 18:35,17200,-1.5193304,-1.1045725,0.92704296,-0.38255262,-0.10128849,9.798662,-0.020164693,8.10E-04,0.9554419,0.29448855,-1.9225006,-1.2149811,10.868317,-0.28855896,0.1558075,0.95536804
2022/12/14 18:35,17241,-1.0904008,-0.67447865,0.27283955,-0.46790266,-0.14964053,9.794338,-0.025043253,-7.53E-04,0.96090007,0.27575952,-1.5472107,-0.77323914,10.063873,-0.06378174,0.15473938,1.1247559
2022/12/14 18:35,17280,-1.3855363,-0.7105633,-0.547575,-0.54527575,-0.16337766,9.790115,-0.029019265,-9.46E-04,0.9663596,0.25555047,-1.9685822,-0.85224915,9.286957,-0.115982056,0.16326904,1.2025146
2022/12/14 18:35,17320,-1.1528032,-0.80760497,-0.30218124,-0.6316223,-0.2132736,9.783964,-0.033869702,-0.003083271,0.97198516,0.23256874,-1.8003998,-1.0491791,9.746643,-0.22676086,0.16859436,1.3537903
2022/12/14 18:35,17360,-1.279072,-0.6934347,-0.018909454,-0.725518,-0.26537377,9.776175,-0.039022848,-0.005571678,0.97751296,0.20715834,-2.0320282,-0.9408417,9.85437,-0.17990112,0.16220093,1.4997253
2022/12/14 18:35,17400,-0.8852905,-0.66516155,0.0986042,-0.8030614,-0.28498134,9.769558,-0.042924583,-0.006974906,0.982927,0.1787829,-1.6327972,-0.99591064,10.090805,-0.1351471,0.111068726,1.6115723
2022/12/14 18:35,17441,-1.0296729,-0.88745683,0.14602757,-0.870866,-0.27433845,9.764052,-0.046056945,-0.007116313,0.9874146,0.15113066,-1.8542633,-1.1652985,9.925598,-0.05206299,0.101486206,1.6563263
2022/12/14 18:35,17480,-0.45786422,-0.8424362,-0.50078773,-0.9316973,-0.251777,9.759044,-0.049035154,-0.0070575,0.99164706,0.119087584,-1.300003,-1.0809021,9.411453,-0.13728333,0.064193726,1.7255554
2022/12/14 18:35,17520,-0.2758454,-0.7898927,-0.07938576,-0.9703801,-0.27414516,9.75467,-0.050853953,-0.009641676,0.9944825,0.09124407,-1.2748718,-1.1239929,9.885498,-0.2523346,0.03224182,1.7212982
2022/12/14 18:35,17560,-0.3242551,-0.83904463,0.3010912,-0.994738,-0.31594226,9.750952,-0.05170977,-0.012880889,0.9965725,0.063273005,-1.3203583,-1.1599121,10.2308655,-0.23208618,-0.046585083,1.7671051
2022/12/14 18:35,17601,0.13992703,-0.3894832,0.16268158,-0.98617566,-0.3229681,9.751592,-0.05089065,-0.014742887,0.99800086,0.03445379,-0.7642975,-0.65353394,10.002823,-0.14793396,-0.11582947,1.8022614
2022/12/14 18:35,17640,0.79887843,0.054864317,-0.057469368,-0.9548703,-0.31050235,9.755111,-0.048861034,-0.015503067,0.99865973,0.0071412,-0.14898682,-0.19325256,9.774765,-0.13621521,-0.10731506,1.6392822
2022/12/14 18:35,17680,0.9948269,0.30978495,-0.42338276,-0.923546,-0.3090842,9.758172,0.04688363,0.016541854,-0.9986317,0.016216997,0.086242676,-0.014877319,9.533554,-0.17562866,-0.13500977,1.4539185
2022/12/14 18:35,17720,1.2670062,0.110375255,0.005562782,-0.8784249,-0.33032194,9.761642,0.04421823,0.01842692,-0.99823457,0.035113513,0.30830383,-0.2106018,9.952545,-0.16923523,-0.11582947,1.1684265
2022/12/14 18:35,17761,0.7634095,0.028660953,0.15379143,-0.8240952,-0.33944568,9.766065,0.041126557,0.019438608,-0.9976757,0.05073397,-0.011917114,-0.3327179,10.008804,-0.06059265,-0.17655945,0.9969177
2022/12/14 18:35,17800,1.5004978,0.5305389,0.046527863,-0.7393408,-0.3146468,9.773677,0.03659615,0.018490285,-0.99701774,0.06537901,0.81288147,0.27542114,9.913635,0.04273987,-0.26390076,0.8126373
2022/12/14 18:36,17840,1.5974956,0.8840977,-0.39534664,-0.62529,-0.26257256,9.783173,0.030810263,0.015740957,-0.9966091,0.07465395,1.055893,0.7452698,9.471909,0.0725708,-0.30863953,0.50582886
2022/12/14 18:36,17880,1.8420832,1.49098,-0.20005512,-0.4726911,-0.22405973,9.792688,0.023151793,0.013260541,-0.9966424,0.077408694,1.2707672,1.3156891,9.802307,0.007598877,-0.30651855,0.07865906
2022/12/14 18:36,17920,0.8909036,1.8261784,0.3006811,-0.3601931,-0.2150682,9.797672,0.0175364,0.012255139,-0.9972046,0.07159126,0.404068,1.567688,10.30867,-0.038208008,-0.19892883,-0.24624634
2022/12/14 18:36,17960,-1.0394177,1.4938476,0.78667736,-0.32456547,-0.22487637,9.798697,0.015822882,0.012454022,-0.99794346,0.060855262,-1.5555878,1.2013702,10.8198395,-0.09147644,-0.002914429,-0.3740692
2022/12/14 18:36,18000,-2.273753,0.27557725,2.053668,-0.36730283,-0.2623677,9.796257,0.01802595,0.014317825,-0.9984359,0.05094885,-2.7323303,-0.3363037,12.297058,-0.106399536,0.09509277,-0.23239136
2022/12/14 18:36,18040,-2.1731718,-1.7985317,3.305007,-0.39918584,-0.29264462,9.79415,0.019677334,0.015813721,-0.9986977,0.044335414,-2.6072388,-2.3001404,13.484589,0.027832031,-0.014633179,-0.061950684
2022/12/14 18:36,18080,-1.5788076,-2.4083242,1.7902622,-0.45859924,-0.17135961,9.794422,0.022996033,0.009727547,-0.99878174,0.042563304,-1.849472,-2.5096436,11.006592,0.6904297,0.2548828,0.31515503
2022/12/14 18:36,18121,-0.7406713,-2.3664734,-1.4195385,-0.5510098,0.08316496,9.790805,0.02827398,-0.00291019,-0.9984811,0.04719756,-1.3101807,-2.2414856,8.420258,0.5924225,0.04182434,0.5931854
2022/12/14 18:36,18160,0.6232314,-2.400617,-1.8418894,-0.56642383,0.27631938,9.786378,0.029659126,-0.012406318,-0.99782056,0.05762442,0.43460083,-1.9009094,8.056931,0.49227905,0.10681152,0.89146423
2022/12/14 18:36,18200,2.6076734,-1.3878047,-2.055747,-0.5759522,0.40821996,9.781208,0.030806847,-0.018792478,-0.9968064,0.07123766,2.1506348,-0.8642273,8.087463,0.057662964,0.09402466,0.6560364
2022/12/14 18:36,18240,1.6819619,-1.6502666,0.015213966,-0.5784019,0.34448352,9.783516,0.030747157,-0.015302509,-0.99657315,0.075249255,1.0277557,-1.3729858,10.13031,-0.23742676,0.08123779,0.33859253
2022/12/14 18:36,18280,0.62691057,-1.8846153,1.2726526,-0.5695949,0.29649818,9.785604,0.030144474,-0.012821336,-0.99644035,0.07767604,-0.113082886,-1.6082306,11.112534,0.12690735,-0.058303833,0.35668945
2022/12/14 18:36,18321,-0.2375536,-1.6768819,-0.94750595,-0.53643155,0.39895746,9.783836,0.028961975,-0.01801012,-0.9959662,0.082994975,-0.79003906,-1.1778717,8.90448,0.30374146,-0.08067322,0.5974426
2022/12/14 18:36,18360,0.14646614,-1.1127458,-0.8193178,-0.48607215,0.45634708,9.783959,0.026829353,-0.020906324,-0.99520236,0.09173546,-0.38841248,-0.6499481,9.27858,0.012924194,-0.13180542,0.6560364
2022/12/14 18:36,18400,0.67145574,-0.6822264,0.19287872,-0.41195297,0.44955367,9.787675,0.023232294,-0.020681392,-0.9943576,0.101417385,0.33703613,-0.16810608,10.175201,-0.010513306,-0.113708496,0.70610046
2022/12/14 18:36,18440,1.7273064,-0.002767384,0.018551826,-0.3700714,0.45032242,9.789312,0.021294883,-0.020748245,-0.9934605,0.110237435,1.4467468,0.5788727,10.098587,-0.08401489,-0.048721313,0.5324707
2022/12/14 18:36,18480,1.4149522,0.114866436,1.0957718,-0.33100837,0.42968583,9.791638,0.019164717,-0.01995191,-0.9936981,0.10862179,0.64408875,0.4873047,10.929977,0.05873108,-0.003982544,0.07865906
2022/12/14 18:36,18521,-0.63882935,-0.2600155,-0.19167042,-0.33012185,0.5001238,9.788323,0.019463126,-0.02357054,-0.99383646,0.10655822,-1.0085144,0.20837402,9.542526,0.26005554,-0.003982544,0.20010376
2022/12/14 18:36,18560,0.13898706,-0.37581944,-1.0272703,-0.33036727,0.5910032,9.78325,0.0201197,-0.028464915,-0.9934275,0.10902609,-0.13342285,0.2347107,8.900284,0.13009644,0.042892456,0.2853241
2022/12/14 18:36,18600,-0.14437082,-0.81307405,-1.2452745,-0.35420102,0.6183759,9.780723,0.021461014,-0.029348727,-0.993165,0.11091117,-0.41116333,-0.20521545,8.642319,0.028900146,0.05567932,0.35031128
2022/12/14 18:36,18640,1.2483587,-0.2854643,-1.109704,-0.354239,0.6106006,9.78121,0.021492023,-0.028899485,-0.99289286,0.113431565,1.0439148,0.42445374,8.854202,-0.11277771,0.054611206,0.41848755
2022/12/14 18:36,18680,1.7251643,0.5013975,0.047842026,-0.35063258,0.5315651,9.7859535,0.020795053,-0.024956165,-0.9932562,0.11129634,1.2516174,1.1486969,10.119537,-0.24594116,0.03224182,0.12234497
2022/12/14 18:36,18721,0.99189425,0.81923467,0.96734524,-0.3403253,0.4735876,9.789293,0.019797785,-0.02220261,-0.9940424,0.10485593,0.5956116,1.2738037,10.908432,-0.047805786,-0.014633179,0.025405884
2022/12/14 18:36,18760,0.85338974,0.7791573,0.51389885,-0.31407854,0.5383967,9.786821,0.018624425,-0.025770558,-0.9947273,0.097501814,0.356781,1.2666168,10.066864,0.2952118,-0.031677246,-0.044906616
2022/12/14 18:36,18800,-0.3245584,0.257963,-1.1633501,-0.31187534,0.6446289,9.780469,0.018902423,-0.031266015,-0.99499875,0.092965804,-0.70025635,0.8625946,8.694992,0.12902832,0.02798462,0.020080566
2022/12/14 18:36,18840,-0.074659765,0.20003968,0.03567505,-0.32571405,0.641416,9.780229,0.019538058,-0.031070217,-0.9951476,0.09129179,-0.24415588,0.86138916,10.334412,-0.08401489,0.03224182,0.17559814
2022/12/14 18:36,18881,0.5684649,0.86954355,0.7351837,-0.33753327,0.6636129,9.778347,0.020423573,-0.032749593,-0.9951829,0.09011886,0.23468018,1.701767,10.421204,0.20359802,0.09616089,0.20968628
2022/12/14 18:36,18920,0.34835094,1.2227911,-0.23549843,-0.35124308,0.78574723,9.768808,0.021339053,-0.038393218,-0.99526364,0.086722896,-0.059814453,1.9842834,9.661041,0.25047302,0.029037476,0.20756531
2022/12/14 18:36,18960,0.67514294,0.816449,0.012252808,-0.34324867,0.8802171,9.761034,0.021250151,-0.043292098,-0.9952739,0.084285796,0.3867035,1.6185608,9.841812,0.13755798,0.04182434,0.24165344
2022/12/14 18:36,19000,0.2802672,-0.111252666,1.4141369,-0.3364217,0.8793714,9.761348,0.020725446,-0.043361574,-0.9956118,0.08029607,-0.05680847,0.5345917,11.512955,-0.13941956,0.03970337,0.12979126
2022/12/14 18:36,19040,-0.2283107,-1.9076431,2.1934175,-0.38552046,0.79769117,9.766547,0.022705235,-0.039104205,-0.9961038,0.075713016,-0.71102905,-1.1311798,12.14682,-0.22250366,0.26766968,0.15003967
2022/12/14 18:36,19080,-0.14279914,-1.5722494,3.2881613,-0.45050645,0.7332865,9.768814,0.025681363,-0.035631265,-0.9963301,0.07346579,-0.40098572,-0.6912384,13.03627,0.16311646,0.11746216,0.35031128
2022/12/14 18:36,19120,1.2523662,-0.6904972,0.32861328,-0.4570298,0.9039352,9.754199,0.026768144,-0.044245843,-0.99578226,0.07578583,0.90086365,0.26045227,9.738266,0.6680603,-0.01889038,0.34391785
2022/12/14 18:36,19161,0.38824955,-1.538716,-2.3919249,-0.43437433,1.1430655,9.730113,0.026588982,-0.057594113,-0.9950946,0.075912,-0.22920227,-0.5631561,7.2063904,0.4763031,-0.014633179,0.07121277
2022/12/14 18:36,19200,-0.2615843,-2.5092874,-2.3992558,-0.43731585,1.1986166,9.723294,0.026897622,-0.05893732,-0.99521416,0.073154874,-0.67211914,-1.3251038,7.718155,-0.12876892,0.05567932,0.015808105
2022/12/14 18:36,19240,0.10438594,-2.140846,-0.76372814,-0.4802449,1.063385,9.73699,0.028515179,-0.05132327,-0.99578446,0.070470504,-0.27767944,-0.9037323,9.373138,-0.39933777,0.11959839,-0.003356934
2022/12/14 18:36,19280,0.54472166,-0.8250898,0.27782536,-0.5011378,0.901369,9.752272,0.028621515,-0.04419721,-0.9963549,0.06711447,0.15386963,0.21376038,10.154846,-0.24380493,0.010940552,-0.023605347
2022/12/14 18:36,19320,0.5851495,-0.25782806,0.5063076,-0.49102023,0.81305456,9.760544,0.027597707,-0.039863538,-0.9968896,0.062131993,0.03656006,0.4681549,10.468491,-0.20759583,-0.050857544,-0.15142822
2022/12/14 18:36,19361,0.17431965,-0.9591016,0.96573544,-0.4697399,0.7531683,9.766395,0.026081191,-0.03704347,-0.99741846,0.055712715,-0.3333435,-0.16511536,10.828812,-0.026504517,-0.0710907,-0.1461029
2022/12/14 18:36,19400,0.010558754,-0.9277107,0.1273632,-0.44291383,0.7755313,9.765898,0.02455728,-0.038402036,-0.9977103,0.049964257,-0.46203613,-0.07533264,9.974091,0.17697144,-0.06150818,-0.099243164
2022/12/14 18:36,19440,0.15811378,-0.54217565,-1.1018286,-0.43109757,0.847028,9.760486,0.023812698,-0.042269085,-0.99793077,0.042195506,-0.22680664,0.46635437,8.640518,0.1471405,-0.033813477,-0.05769348
2022/12/14 18:36,19481,0.43005097,-0.14175862,-0.9511032,-0.4129356,0.8439855,9.761535,0.022540674,-0.042333975,-0.99826366,0.034196634,0.03955078,0.6938019,9.099609,-0.15646362,-0.05937195,-0.15356445
2022/12/14 18:36,19520,0.37854174,-0.44160688,-0.1703434,-0.40130436,0.7519117,9.769543,0.02138969,-0.03787372,-0.99876934,0.023830174,-0.1232605,0.2526703,9.940567,-0.27789307,-0.04978943,-0.30377197
2022/12/14 18:36,19560,-0.017697573,-0.46602237,0.439703,-0.39230284,0.65876377,9.776632,0.020409908,-0.033086106,-0.9991787,0.011428081,-0.44587708,0.16886902,10.242233,-0.10319519,-0.01676941,-0.28033447
2022/12/14 18:36,19600,-0.055493027,0.14093989,-0.77535343,-0.39587623,0.6340805,9.778119,0.020242337,-0.032325406,-0.9992715,0.0013463,-0.42253113,0.8093262,9.066086,-0.049926758,-0.03060913,-0.18765259
2022/12/14 18:36,19640,0.15075096,0.26857638,-0.3959446,-0.3775572,0.60065925,9.780953,-0.01901558,0.030799119,0.9993124,0.00803772,-0.26332092,0.8721771,9.568268,-0.082962036,-0.057235718,-0.20256042
2022/12/14 18:36,19680,-0.35052493,0.19236845,-0.5437727,-0.3762245,0.5809447,9.782195,-0.018638235,0.029991081,0.9992027,0.01863005,-0.8421173,0.75964355,9.252838,-0.039276123,0.002410889,-0.27926636
2022/12/14 18:36,19720,-0.55650747,-0.07121289,-0.5324669,-0.37932992,0.5492134,9.783908,-0.018556306,0.02855132,0.99902505,0.028097821,-0.9151306,0.51065063,9.376129,-0.10745239,-0.026351929,-0.15570068
2022/12/14 18:36,19760,-0.16813314,0.2806148,-0.5933428,-0.37025762,0.4936415,9.787217,-0.017984552,0.025833623,0.9988788,0.035360735,-0.47280884,0.7722168,9.315079,-0.19587708,-0.066833496,-0.07048035
2022/12/14 18:36,19800,0.4237635,0.47003224,-0.6431036,-0.3282998,0.4062084,9.792732,-0.015877055,0.021390285,0.9987969,0.041171778,0.09761047,0.88414,9.246246,-0.29493713,-0.13926697,-0.048110962
2022/12/14 18:36,19840,0.5435387,0.59790695,0.38200378,-0.27390313,0.28054115,9.798809,-0.013269628,0.014956481,0.998662,0.047691688,0.27478027,0.89372253,10.238647,-0.33862305,-0.099853516,-0.11628723
2022/12/14 18:36,19880,0.30225313,1.2086396,0.73905754,-0.24286221,0.18508829,9.801895,-0.011840014,0.010112095,0.9983315,0.055603497,0.009017944,1.5269775,10.732452,-0.21292114,-0.11050415,-0.18978882
2022/12/14 18:36,19920,-0.06415035,1.3913589,1.4575405,-0.194215,0.16483302,9.803342,-0.009338589,0.009027879,0.9978212,0.06468471,-0.2758789,1.5467377,11.308258,0.11412048,-0.099853516,-0.2121582
2022/12/14 18:36,19961,-0.33167347,1.2870272,0.1927042,-0.1801901,0.27602264,9.801109,-0.008136086,0.014708618,0.99718934,0.07301294,-0.5392456,1.5036469,10.029755,0.2728424,2.75E-04,-0.21322632
2022/12/14 18:36,20000,-0.4797162,-0.15212461,0.72385406,-0.19647703,0.32698122,9.799227,-0.008629577,0.017434461,0.99649614,0.08134469,-0.766098,0.11201477,10.855759,-0.011581421,0.024780273,-0.2164154
2022/12/14 18:36,20040,-0.8136895,-0.65559316,1.9342651,-0.25754043,0.29144248,9.798935,-0.011810036,0.015934277,0.9961173,0.085772716,-0.93548584,-0.38059998,11.818222,-0.08828735,0.21865845,-0.03744507
2022/12/14 18:36,20080,0.080212384,-0.48434085,2.2353706,-0.29117677,0.2549045,9.799011,-0.013646517,0.014256012,0.9959219,0.088034324,0.020401001,-0.32911682,12.275513,0.03315735,-0.029541016,0.05203247
2022/12/14 18:36,20120,0.53099877,-1.14008,0.7088213,-0.27692464,0.35325015,9.796372,-0.012418863,0.019229818,0.99556124,0.09128992,0.26161194,-0.9037323,10.133896,0.45074463,-0.03807068,0.020080566
2022/12/14 18:36,20161,0.38123178,-2.2077084,-1.4295263,-0.25910142,0.46515635,9.792185,-0.010878076,0.024883628,0.99501944,0.09591041,0.007827759,-1.7782135,8.640518,0.116241455,-0.10517883,-0.089645386
2022/12/14 18:36,20200,0.39369297,-2.4777575,-0.026224136,-0.20735343,0.45468223,9.793909,-0.008188603,0.024136253,0.9946022,0.100582264,0.40167236,-1.8231049,9.87233,0.06724548,-0.027420044,0.01687622
2022/12/14 18:36,20240,1.1890955,-1.387924,-0.45927715,-0.19207324,0.4741921,9.793296,-0.007011131,0.02525985,0.99419975,0.10430566,1.0068054,-0.7995758,9.568268,0.116241455,-0.04446411,-0.0630188
2022/12/14 18:36,20280,0.8159922,-0.79415333,-0.8630419,-0.15072024,0.53695965,9.790778,-0.004625223,0.028068364,0.99351716,0.1100654,0.6811981,-0.2285614,9.013412,0.20359802,-0.062576294,-0.15888977
2022/12/14 18:36,20320,0.53516275,-0.9362884,-0.936285,-0.123357505,0.5467832,9.790618,-0.002974618,0.028435376,0.99268,0.1173411,0.37294006,-0.43206787,9.140305,-0.11065674,-0.1030426,-0.24198914
2022/12/14 18:36,20361,0.2564153,-1.0769967,0.46501827,-0.09698919,0.47662282,9.79458,-0.001859279,0.024736898,0.991801,0.1253608,0.09642029,-0.5978699,10.470291,-0.1308899,-0.026351929,-0.2355957
2022/12/14 18:36,20400,-0.4696462,-0.8300342,0.4919815,-0.101936586,0.45681855,9.795474,-0.002073052,0.023780711,0.99093986,0.13216802,-0.65657043,-0.37101746,10.345184,0.083221436,0.04928589,-0.11734009
2022/12/14 18:36,20440,-0.9666285,-0.75690544,-0.31586647,-0.12623793,0.4997845,9.793093,-0.002929253,0.026127608,0.99045587,0.13529932,-1.0450287,-0.20402527,9.470703,0.18016052,-0.014633179,0.13192749
2022/12/14 18:36,20480,0.15113813,-0.26027745,-0.9311714,-0.12007711,0.55902445,9.789967,-0.002264766,0.029076762,0.99063385,0.13339435,0.20535278,0.29995728,8.86557,0.11412048,0.014129639,0.32687378
2022/12/14 18:36,20521,1.37894,0.04914725,-0.7582092,-0.11506604,0.56050736,9.789943,-0.002086883,0.029111626,0.9910208,0.13048366,1.1857758,0.59443665,9.395294,-0.11810303,0.01626587,0.14683533
2022/12/14 18:36,20560,0.56167126,-0.31182384,0.121273994,-0.101249464,0.5260951,9.792005,-0.001566649,0.027356466,0.9910212,0.13086694,0.2765808,0.19281006,10.03035,0.03315735,-0.003982544,0.019012451
2022/12/14 18:36,20600,-0.113135606,0.2861721,-1.5370235,-0.12976195,0.56749433,9.789356,-0.003090219,0.029630624,0.99075884,0.13232324,-0.20465088,1.0271912,8.199982,0.008651733,0.14729309,0.086120605
2022/12/14 18:36,20640,0.23416187,0.15567246,0.13897896,-0.1904381,0.45923072,9.79404,-0.006485477,0.02451237,0.9906563,0.1340043,0.057510376,0.4867096,10.330826,-0.44940186,0.10574341,0.02859497
2022/12/14 18:36,20680,0.114583805,-0.1516729,2.120226,-0.22365585,0.3685919,9.797169,-0.008750377,0.02017113,0.990515,0.13563417,-0.15975952,0.19102478,11.884064,0.0960083,0.09616089,0.12767029
2022/12/14 18:36,20721,0.10428351,0.18182701,-0.9198818,-0.27366048,0.48740113,9.790707,-0.010493695,0.02650987,0.9905402,0.1342283,-0.26571655,0.7243347,8.672836,0.31011963,0.10041809,0.21928406
2022/12/14 18:36,20760,0.023775011,0.45384735,-1.1556778,-0.28378958,0.5546436,9.7868395,-0.010654478,0.029942617,0.99092126,0.13063294,-0.2142334,1.0283966,8.891907,0.022506714,0.015197754,0.30236816
2022/12/14 18:36,20800,0.8761354,0.82515234,-0.6572256,-0.28553537,0.561711,9.786386,-0.01083025,0.030264251,0.99148,0.12623063,0.6823883,1.4449768,9.23967,-0.039276123,0.04396057,0.2661438
2022/12/14 18:36,20840,1.2875704,1.0168675,-0.3374977,-0.29004547,0.54313564,9.787301,-0.011230483,0.029332558,0.9917278,0.124456264,0.9313965,1.5718689,9.67482,-0.13835144,0.06951904,0.095703125
2022/12/14 18:36,20880,0.44251776,0.85971224,0.46076965,-0.31346235,0.49356946,9.789204,-0.012702863,0.026984,0.9916507,0.12545694,-0.008331299,1.3354492,10.357162,-0.09147644,0.054611206,0.013687134
2022/12/14 18:36,20921,0.030288786,0.9932515,0.49617577,-0.33030778,0.49883825,9.7883835,-0.013482671,0.02737839,0.9914492,0.12687473,-0.3800354,1.5102234,10.287735,0.08003235,0.052474976,0.11595154
2022/12/14 18:36,20960,-0.035741568,1.3679922,-0.25343704,-0.358748,0.5622641,9.783943,-0.014554181,0.031283516,0.99136966,0.12647404,-0.37104797,1.966919,9.654465,0.16525269,0.062072754,0.22033691
2022/12/14 18:36,21000,0.6286333,1.3272638,-0.23147774,-0.35496154,0.65507454,9.778306,-0.013819554,0.035414305,0.99153966,0.12411274,0.25862122,1.8795319,9.5473175,0.13223267,0.017318726,0.27360535
2022/12/14 18:36,21040,0.641801,-0.21447265,1.5680962,-0.32819146,0.65052354,9.779545,-0.012523904,0.035001993,0.9916813,0.1232326,0.31188965,0.22213745,11.696716,-0.1000061,-0.085998535,0.16601562
2022/12/14 18:36,21081,-0.068071276,-1.938981,1.3316088,-0.3259026,0.59434235,9.783196,-0.012739466,0.03214832,0.9916936,0.1238871,-0.4781952,-1.3496552,11.168793,-0.18095398,0.122787476,0.10316467
2022/12/14 18:36,21120,0.17741212,-1.8480194,2.7546558,-0.3257098,0.45649832,9.790603,-0.013605169,0.02516088,0.99191207,0.12366208,-0.12684631,-1.337677,12.869278,-0.21611023,-0.001846314,0.17666626
2022/12/14 18:36,21160,-0.08059591,-0.85478264,1.231039,-0.32639164,0.49935824,9.788488,-0.013401817,0.027320394,0.99200207,0.122498654,-0.39678955,-0.10107422,10.663025,0.5274353,-0.074279785,0.31834412
2022/12/14 18:36,21200,0.79973334,0.3286069,-2.0527859,-0.26202032,0.75280726,9.774201,-0.008795778,0.03971219,0.99234444,0.11661095,0.7590027,1.1169739,7.4954834,0.57644653,-0.123291016,0.36628723
2022/12/14 18:36,21240,0.87669146,-0.6560938,-2.7470064,-0.24630038,0.8306845,9.7683,-0.007996047,0.04277969,0.99237007,0.1153587,0.55371094,-0.095687866,7.4924927,-0.29174805,0.13130188,-0.08538818
2022/12/14 18:36,21280,0.2270301,-2.0327528,-0.3186264,-0.31654164,0.5850802,9.784062,-0.013153948,0.02940482,0.991972,0.12228595,-0.4087677,-1.7303314,10.197952,-0.8574066,0.18031311,-0.43373108
2022/12/14 18:36,21321,-1.3971388,-2.8968906,2.538764,-0.38010985,0.229977,9.796581,-0.017688958,0.014157882,0.99119496,0.13045752,-1.8919678,-2.6616669,12.463455,-0.43130493,0.05354309,-0.23771667
2022/12/14 18:36,21360,-1.3506484,-1.9257177,0.1116848,-0.44061145,0.19597249,9.794786,-0.02097678,0.012839397,0.99116415,0.13034096,-1.6130524,-1.5447845,9.720306,0.22384644,0.14729309,0.27253723
2022/12/14 18:36,21400,0.5633969,-0.28475443,-1.4772587,-0.4554578,0.2596158,9.792627,-0.021402938,0.016027855,0.9918807,0.124328665,0.24365234,0.031799316,8.453766,0.052337646,-0.043395996,0.34284973
2022/12/14 18:36,21440,1.563982,-0.28429216,-0.37920475,-0.4235601,0.2210482,9.795005,-0.020057436,0.013836183,0.99216664,0.12252198,1.1732025,-0.11364746,9.779556,-0.17562866,-0.011444092,-0.03211975
2022/12/14 18:36,21480,0.7819612,-0.63623226,0.17258072,-0.41937044,0.16843006,9.796232,-0.020123487,0.011236578,0.9916387,0.12697022,0.11856079,-0.506897,9.942963,-0.04673767,0.04928589,-0.2590332
2022/12/14 18:36,21521,-0.47370377,-0.79577535,-0.1489029,-0.4310896,0.1223977,9.796405,-0.02095801,0.009114575,0.9908329,0.13314594,-1.0994873,-0.6978302,9.960922,-0.1511383,-0.023147583,-0.22813416
2022/12/14 18:36,21560,-1.0943992,-0.60307276,0.7177744,-0.44357583,0.064489484,9.796401,-0.022131171,0.006269209,0.99033904,0.13674599,-1.5717468,-0.48414612,10.616928,-0.03501892,0.03756714,-0.031066895
2022/12/14 18:36,21600,-0.437886,-0.33855578,-0.25751877,-0.4598872,0.076913424,9.795559,-0.02271083,0.007203656,0.9904741,0.13562237,-0.7247925,-0.22018433,9.522781,0.057662964,0.001342773,0.15216064
2022/12/14 18:36,21640,0.42175156,-0.19092435,-0.106928825,-0.45663223,0.07450309,9.79573,-0.022559356,0.006917758,0.990516,0.13535623,-0.035873413,-0.1268158,9.910645,-0.041412354,0.004547119,0.03817749
2022/12/14 18:36,21681,0.5106392,0.082436934,-0.15306759,-0.47024807,0.06670423,9.795142,-0.02328516,0.00667531,0.9901639,0.13779941,0.012023926,0.17066956,9.752029,0.001205444,0.050354004,-0.044906616
2022/12/14 18:36,21720,0.31731015,0.19497196,-0.3198433,-0.47717795,0.06553209,9.794814,-0.023616394,0.006734658,0.9895818,0.1418618,-0.2830658,0.2227478,9.67421,-0.008392334,0.004547119,-0.14291382
2022/12/14 18:36,21760,-0.51693827,-0.17761068,-0.42085266,-0.4871969,0.0729259,9.79427,-0.024035372,0.007318213,0.98890597,0.1464025,-1.03125,-0.12261963,9.422226,0.055526733,0.03224182,-0.075805664
2022/12/14 18:36,21800,0.15191853,0.21009248,-0.4502306,-0.5013384,0.07992584,9.793501,-0.024681447,0.0078265,0.988592,0.14837588,-0.26271057,0.2742157,9.527573,-0.041412354,0.056747437,-1.68E-04
2022/12/14 18:36,21841,0.54208624,0.5232233,0.40045643,-0.52373135,0.04731075,9.792541,-0.026042659,0.006415539,0.988198,0.15081586,0.007232666,0.6537018,10.357162,-0.106399536,0.06845093,-0.08113098
2022/12/14 18:36,21880,0.40198088,0.8922154,0.43379593,-0.5216702,0.03783651,9.792692,-0.02598452,0.00603941,0.9875104,0.15527917,-0.16694641,0.923645,10.335617,0.052337646,-0.050857544,-0.17807007
2022/12/14 18:36,21920,0.28309226,1.0441312,-0.3374815,-0.50209314,0.08110079,9.793452,-0.024395928,0.00848367,0.9865138,0.16162723,-0.24775696,1.1121826,9.511414,0.106658936,-0.057235718,-0.23239136
2022/12/14 18:36,21961,-0.020277172,0.8876789,-0.4203062,-0.47077647,0.116270065,9.794653,-0.022675337,0.009873502,0.98552895,0.16769312,-0.5182953,1.0218048,9.472504,0.071502686,-0.06895447,-0.2590332
2022/12/14 18:36,22000,-0.28689924,0.9480356,-0.7220354,-0.44867107,0.14957236,9.795239,-0.021202482,0.011500218,0.98440385,0.1742622,-0.67092896,1.0906372,9.197174,0.03955078,-0.06576538,-0.19830322
2022/12/14 18:36,22040,-0.020325214,1.0080231,-0.30225754,-0.41768923,0.16580796,9.796348,-0.019442145,0.01213572,0.9835612,0.17911452,-0.41116333,1.2330933,9.615555,0.03741455,-0.088134766,-0.16209412
2022/12/14 18:36,22080,0.31965336,1.404047,-0.22404575,-0.38138658,0.20011406,9.797188,-0.017242435,0.013607048,0.9827205,0.18378775,-0.04724121,1.6221466,9.787338,0.071502686,-0.11264038,-0.18551636
2022/12/14 18:36,22120,0.56512,1.6497953,0.62021065,-0.33516216,0.25065443,9.797715,-0.014361127,0.015789447,0.981666,0.18941031,0.107788086,1.9758911,10.596573,0.1428833,-0.09239197,-0.27500916
2022/12/14 18:36,22160,0.4784544,1.0965716,0.85821056,-0.33381402,0.30561307,9.796201,-0.01362347,0.018632079,0.98017645,0.19677757,0.37713623,1.3827362,10.839584,-0.022232056,-0.002914429,-0.33465576
2022/12/14 18:36,22201,0.91787434,-0.28666824,2.9829712,-0.2969907,0.22121093,9.799655,-0.012477987,0.014174762,0.97810936,0.20723288,0.24066162,-0.42907715,13.249954,-0.2576599,-0.0753479,-0.7000427
2022/12/14 18:36,22240,-2.2195125,-2.43007,3.1837378,-0.34120938,0.1624515,9.799366,-0.015132772,0.01193275,0.974977,0.22146875,-3.0884705,-2.522812,12.8237915,0.10240173,0.27937317,-0.59884644
2022/12/14 18:36,22280,-3.415616,-3.179419,0.7167549,-0.50802654,0.26047885,9.790018,-0.022726096,0.020328652,0.9739953,0.22450702,-3.686432,-2.7927551,10.221283,0.6254425,0.26127625,0.24484253
2022/12/14 18:36,22320,-0.2743516,-1.6958289,-2.6590824,-0.55969065,0.5483812,9.775296,-0.021940315,0.03342514,0.9762502,0.21292487,-0.5643921,-0.9288635,7.1154175,0.58283997,0.007736206,0.7551117
2022/12/14 18:36,22361,2.6167483,-0.00280118,-2.2058992,-0.5248427,0.6414074,9.771567,-0.019647729,0.037452683,0.97866094,0.2010821,2.266159,0.7404938,7.9102783,-0.09361267,0.002410889,0.44404602
2022/12/14 18:36,22400,2.3749423,-0.3251778,0.079512596,-0.501802,0.54382885,9.778692,-0.019529419,0.032311488,0.97905487,0.20006546,1.7938995,0.117996216,10.200943,-0.31092834,0.004547119,-0.17486572
2022/12/14 18:36,22440,0.7134836,-1.3589647,1.4782248,-0.4961709,0.45435932,9.7835455,-0.019975116,0.027910799,0.9778307,0.20656496,0.10359192,-0.91989136,11.319626,0.015045166,0.011993408,-0.32933044
2022/12/14 18:36,22480,-0.68866146,-1.3968301,-0.08381939,-0.5179549,0.5008146,9.780148,-0.020395355,0.030582085,0.9765175,0.2122788,-1.4137268,-0.8169403,9.689774,0.19720459,0.05354309,-0.20150757
2022/12/14 18:36,22520,-1.3436214,-1.2584805,-0.37957287,-0.53302705,0.5539946,9.77647,-0.020524206,0.03342952,0.9761189,0.21366592,-1.8303223,-0.62301636,9.503632,0.170578,-0.046585083,0.12979126
2022/12/14 18:36,22561,0.11977965,-0.7481397,-0.5716543,-0.5031248,0.6211689,9.774017,-0.018163554,0.036703974,0.9773553,0.20760424,-0.119659424,0.04257202,9.207352,0.1748352,-0.08280945,0.39611816
2022/12/14 18:36,22600,1.6293911,-0.15992653,-0.53328896,-0.45604318,0.6578481,9.773927,-0.015781699,0.037517924,0.97840035,0.20267236,1.2276764,0.49926758,9.486862,-0.013717651,-0.03593445,0.17666626
2022/12/14 18:36,22640,0.8949547,-0.22404385,-0.20376301,-0.44911698,0.6301117,9.776074,-0.015965287,0.035875555,0.9782728,0.20356925,0.14489746,0.34664917,9.770584,-0.10319519,0.024780273,-0.0864563
2022/12/14 18:36,22680,-0.4980679,-0.64666545,0.34753036,-0.44621283,0.5907993,9.778663,-0.016096758,0.03417418,0.97802144,0.20505387,-1.0354462,-0.095687866,10.232666,-0.009460449,2.75E-04,0.021133423
2022/12/14 18:36,22720,-0.53633237,-0.35133404,-0.34072304,-0.45542994,0.5958758,9.777929,-0.016549934,0.034502927,0.97827405,0.20375355,-0.85469055,0.3705902,9.388107,0.0256958,0.009872437,0.21289062
2022/12/14 18:36,22760,0.08733302,0.020190716,-0.6285229,-0.43712202,0.5920713,9.7789955,-0.015815724,0.0340563,0.97913593,0.19970688,-0.25672913,0.5740967,9.432404,-0.090408325,-0.06150818,0.26934814
2022/12/14 18:36,22800,0.34571648,0.22654241,-0.24437046,-0.41840774,0.567533,9.78127,-0.015261514,0.032575313,0.97999346,0.19575165,-0.015518189,0.8236847,9.5868225,-0.0488739,0.007736206,0.2853241
2022/12/14 18:36,22840,0.52915835,0.4965104,-0.5413923,-0.41057643,0.5567781,9.78222,-0.015065524,0.031916484,0.98055714,0.19303392,0.06289673,1.0397644,9.361771,-0.06484985,0.006668091,0.21182251
2022/12/14 18:36,22880,0.24968904,0.26634538,-0.44455147,-0.40111488,0.52903414,9.784151,-0.014953014,0.030389618,0.9811627,0.19019087,-0.13282776,0.8266754,9.541336,-0.08721924,-0.003982544,0.22247314
2022/12/14 18:36,22920,0.7206403,0.7284005,-0.4031992,-0.38694233,0.51059926,9.785701,-0.014514962,0.029281508,0.98180246,0.18707176,0.40525818,1.2720032,9.438385,-0.069107056,-0.011444092,0.22886658
2022/12/14 18:36,22961,0.68084705,0.84702814,-0.3472929,-0.37884346,0.4802104,9.787557,-0.014442683,0.027657054,0.98214585,0.18551575,0.22569275,1.3575897,9.662842,-0.12023926,0.025848389,0.08079529
2022/12/14 18:36,23000,0.2574815,1.0705061,-0.06002903,-0.39496577,0.45749983,9.788007,-0.015722664,0.026646689,0.9821768,0.18539552,-0.17892456,1.5826416,9.646683,-0.059524536,0.11213684,0.10848999
2022/12/14 18:36,23040,0.17841822,1.3077856,-0.09275341,-0.43531913,0.42923236,9.787576,-0.017762125,0.02563236,0.98218966,0.18528624,-0.318985,1.6694336,9.925003,-0.14581299,0.08656311,0.060546875
2022/12/14 18:36,23080,-0.54107463,1.0305319,0.53340435,-0.48932043,0.40193397,9.786183,-0.020722616,0.024779929,0.98211527,0.18548892,-1.047409,1.4455872,10.410431,-0.033950806,0.17710876,0.13085938
2022/12/14 18:36,23120,0.33972734,1.4097595,0.5782194,-0.5317214,0.43571264,9.782525,-0.022616738,0.026804386,0.98261553,0.18230936,-0.08554077,1.919632,10.482254,0.0960083,0.06526184,0.30555725
2022/12/14 18:36,23161,1.3099272,1.5946602,0.09995651,-0.54656464,0.49568352,9.778852,-0.022894768,0.029885212,0.9830641,0.1793534,0.7901306,1.9818878,10.039337,0.004394531,0.059936523,0.17985535
2022/12/14 18:36,23200,0.32892585,0.06499711,1.9226007,-0.5298574,0.46456066,9.7813,-0.022350421,0.028159855,0.9831932,0.17899333,-0.3800354,0.30773926,12.2078705,-0.15539551,-0.109436035,0.13406372
2022/12/14 18:36,23240,0.34218505,-0.51249844,3.0069122,-0.45980954,0.4475805,9.785634,-0.018715361,0.026796421,0.98380274,0.1762495,0.20535278,-0.009490967,12.888428,0.092819214,-0.10411072,0.27893066
2022/12/14 18:36,23280,1.2463144,-0.37779343,1.0973787,-0.4444465,0.5037073,9.783616,-0.017824288,0.029269982,0.9839744,0.17498544,0.708725,-0.1088562,10.894653,0.08642578,0.020523071,0.06161499
2022/12/14 18:36,23320,-0.3735866,-2.5723755,2.0442019,-0.40219465,0.5083049,9.785207,-0.014932895,0.029512355,0.98319906,0.17951494,-1.18927,-2.2893677,12.001984,0.23022461,-0.24153137,-0.2398529
2022/12/14 18:36,23361,-0.5481869,-2.5222106,-1.5544157,-0.31429282,0.7591984,9.772166,-0.008878065,0.040980373,0.98312926,0.17804103,-0.4997406,-1.4328461,7.77861,0.97592163,-0.22236633,0.47494507
2022/12/14 18:36,23400,2.3468094,-0.3404106,-4.516098,-0.20391963,0.96275914,9.757146,-0.00180125,0.050207198,0.98385257,0.171785,2.2242584,0.65908813,5.6184387,-0.06591797,-0.21916199,0.0818634
2022/12/14 18:36,23440,0.3978121,-1.368953,-0.071974754,-0.17289732,0.7427827,9.776951,-0.001903958,0.03886668,0.98314327,0.17864779,-0.016113281,-0.661911,10.105774,-0.7295685,0.11532593,-0.5381317
2022/12/14 18:36,23480,-1.2609543,-1.3962326,0.8347416,-0.3007787,0.4954406,9.789508,-0.010290008,0.027715435,0.9815525,0.18889336,-1.7632751,-0.84207153,10.779144,-0.41744995,0.28364563,-0.50190735
2022/12/14 18:36,23521,-1.5477839,-1.0912573,0.5266857,-0.3626934,0.403575,9.791627,-0.014120987,0.023802163,0.980352,0.19530495,-1.8261261,-0.6589203,10.317062,0.016113281,0.026916504,-0.20043945
2022/12/14 18:36,23560,-0.70019567,-1.0866656,-0.5170479,-0.4002294,0.42384812,9.789309,-0.01573799,0.025229061,0.97983,0.19760802,-1.0599823,-0.6403656,9.285156,0.08642578,0.10787964,-0.054489136
2022/12/14 18:36,23600,0.27824625,-0.8715011,-0.36852646,-0.42094517,0.434458,9.787974,-0.016667826,0.025969075,0.9798,0.19758476,0.08204651,-0.34049988,9.561081,0.036346436,0.033309937,0.024337769
2022/12/14 18:36,23641,0.52878535,-0.4642358,-0.9109125,-0.44077325,0.4306596,9.787269,-0.017829059,0.025823865,0.979339,0.19977571,-0.11187744,-0.07952881,8.960739,-0.06591797,0.06312561,-0.1929779
2022/12/14 18:36,23680,-0.052333772,-0.6369081,-0.5389099,-0.46575367,0.35677448,9.789084,-0.019887751,0.021996425,0.9784774,0.20421202,-0.5973053,-0.2531128,9.53894,-0.26405334,0.06951904,-0.23664856
2022/12/14 18:36,23720,-0.24777275,-0.36289394,0.11862278,-0.50307983,0.23982485,9.790801,-0.022559937,0.017295578,0.97779644,0.20761989,-0.7236023,-0.07952881,10.142273,-0.2757721,0.07484436,-0.15888977
2022/12/14 18:36,23760,0.010760129,0.13246728,0.39391422,-0.5300248,0.14209026,9.7912855,-0.024896434,0.012788592,0.97710234,0.21092083,-0.60150146,0.3065338,10.329025,-0.13409424,0.02798462,-0.14717102
