Timestamp,Milliseconds,linear-x,linear-y,linear-z,gravity-x,gravity-y,gravity-z,rotation-x,rotation-y,rotation-z,rotation-w,acc-x,acc-y,acc-z,gyr-x,gyr-y,gyr-z
2023/5/9 22:17,0,0.5907781,0.27224788,1.022377,-0.3194378,-0.061283965,9.801254,0.016136527,0.002863629,-0.99979377,0.011992463,-0.53744507,-0.51885986,9.934586,0.20191956,-0.06504822,-0.080596924
2023/5/9 22:17,41,-0.3003764,-0.1473361,-0.39568138,-0.33672643,-0.010782315,9.800861,0.017162265,7.72E-04,-0.999769,0.012919556,-0.5823364,-0.11244202,9.480286,0.06236267,0.042541504,0.018478394
2023/5/9 22:17,80,0.45796514,0.017139295,-0.73809814,-0.32491198,-0.016666684,9.801251,0.016554236,0.001088197,-0.99975884,0.014387271,-0.06878662,-0.15673828,9.156464,-0.11979675,-0.028839111,-0.059280396
2023/5/9 22:17,120,-0.52568704,-0.43987364,0.22490025,-0.3041438,-0.086220324,9.801554,0.015441146,0.004629367,-0.99975693,0.015039578,-0.77986145,-0.50090027,10.139893,-0.1272583,-0.1342926,0.053634644
2023/5/9 22:17,161,0.42340723,0.08189745,0.17537117,-0.27576745,-0.13789918,9.801803,0.013931724,0.007286404,-0.999711,0.018188491,0.18499756,-0.06037903,10.099777,-0.201828,0.06277466,0.09623718
2023/5/9 22:17,200,0.20184773,0.13931488,1.3778629,-0.32125726,-0.17707904,9.7997875,0.01619832,0.009356335,-0.99962455,0.020020856,-0.14898682,-0.03164673,11.23703,0.11668396,0.12243652,-0.023071289
2023/5/9 22:17,240,-0.609148,-0.072439365,-0.6019535,-0.35611737,-0.10435263,9.799626,0.018046897,0.005693832,-0.9996095,0.02056333,-0.971405,-0.15614319,9.230682,0.19657898,-0.08955383,0.04724121
2023/5/9 22:17,280,0.3245205,-0.057395797,-0.053539276,-0.26060423,-0.05830964,9.803013,0.013217466,0.003273992,-0.9996498,0.022688244,0.19517517,-0.0627594,9.91423,0.07621765,-0.3111267,0.036590576
2023/5/9 22:17,320,0.11878209,0.037789807,-0.0629673,-0.19416131,-0.040557653,9.804645,0.009849015,0.002298472,-0.99967647,0.023338718,-0.16815186,-0.050201416,9.85437,-0.014343262,0.021240234,-0.04650879
2023/5/9 22:17,361,-0.014460728,-0.08444828,0.113155365,-0.21337517,-0.043195676,9.804234,0.010928014,0.002343734,-0.9996396,0.024409056,-0.2363739,-0.14537048,10.042923,0.054901123,0.0382843,0.018478394
2023/5/9 22:17,401,-1.41E-04,-0.15206671,-0.36968136,-0.2198277,-0.033641398,9.804128,0.011160571,0.002005386,-0.9995996,0.025925975,-0.19926453,-0.15853882,9.529358,-0.044158936,-0.002197266,0.04084778
2023/5/9 22:17,440,-0.13375041,-0.083057776,0.41720963,-0.22501029,-0.055129256,9.803912,0.011391293,0.003126178,-0.9995503,0.027561616,-0.3806305,-0.20462036,10.287735,-0.001556397,0.028686523,0.024871826
2023/5/9 22:17,480,0.16169344,0.06377998,0.094278336,-0.22236317,-0.049084455,9.804006,0.011259014,0.002837559,-0.9994937,0.02962174,-0.038253784,0.053955078,10.034546,0.014419556,-0.04800415,0.061080933
2023/5/9 22:17,520,0.05314903,-0.018558387,-0.19636536,-0.20911352,-0.033064686,9.804364,0.010605472,0.002013459,-0.99946755,0.030791398,-0.21003723,-0.07234192,9.662842,0.075149536,-0.017120361,-0.027328491
2023/5/9 22:17,561,-0.13045049,-0.20764133,-0.43490028,-0.192232,-0.037879396,9.804692,0.009734517,0.002245162,-0.9994344,0.032110546,-0.3106079,-0.2501068,9.538345,-0.14323425,-0.028839111,0.04298401
2023/5/9 22:17,600,0.077453256,-0.012566894,0.7107458,-0.18643375,-0.08904898,9.804474,0.009346083,0.004861156,-0.99936604,0.034007777,-0.114868164,-0.09927368,10.597183,-0.04736328,0.004196167,0.03552246
2023/5/9 22:17,640,-0.019427627,0.047206774,0.19370365,-0.19621678,-0.08686291,9.804302,0.009841502,0.004781074,-0.9993111,0.035462577,-0.18789673,-0.06336975,10.081223,0.04638672,0.0105896,0.03126526
2023/5/9 22:17,680,-0.10048659,-0.07781495,-0.065509796,-0.19447261,-0.060002677,9.804539,0.009796434,0.003422677,-0.99926734,0.03683837,-0.22680664,-0.10646057,9.803497,0.07727051,-0.023498535,0.046173096
2023/5/9 22:17,720,0.07775076,-0.033717815,-0.11048794,-0.19614004,-0.040268958,9.804606,0.009915294,0.002433182,-0.9992204,0.03813706,-0.1675415,-0.104660034,9.861557,0.03253174,0.05744934,0.006759644
2023/5/9 22:17,761,-0.050204232,-0.08981123,-0.108454704,-0.2178998,-0.026822854,9.804193,0.011048676,0.001800094,-0.9991761,0.039011493,-0.27288818,-0.100479126,9.79332,0.015487671,0.014846802,0.011016846
2023/5/9 22:17,800,-0.012495339,0.009941597,0.12013245,-0.22352299,-0.027808608,9.804063,0.011332278,0.001867455,-0.9991522,0.039535455,-0.25613403,-0.025650024,10.036942,-0.001556397,0.026565552,-0.008148193
2023/5/9 22:17,840,0.02553837,-0.0770091,-0.08354187,-0.21321853,-0.024094334,9.804302,0.010813504,0.00166518,-0.99912965,0.04025164,-0.18370056,-0.0914917,9.829239,0.004837036,-0.05758667,0.03338623
2023/5/9 22:17,880,0.011742771,-0.06368046,0.1525774,-0.20119233,-0.030448109,9.80454,0.010185915,0.00197341,-0.99909884,0.04115589,-0.19508362,-0.087905884,10.045914,0.010162354,-0.021377563,0.016342163
2023/5/9 22:17,920,-0.011424229,-0.025105463,-0.06203842,-0.19935106,-0.03042608,9.804577,0.010090068,0.001979051,-0.9990559,0.04220826,-0.2711029,-0.05378723,9.840607,-0.002624512,0.005264282,0.03338623
2023/5/9 22:17,961,-0.036481693,-0.011592679,0.057491302,-0.20270212,-0.030769581,9.804506,0.010257498,0.002016844,-0.99899954,0.043481722,-0.22201538,-0.07234192,10.057892,0.008041382,-0.017120361,0.03765869
2023/5/9 22:17,1000,-0.09911308,-0.048643317,0.17041492,-0.2019832,-0.020443244,9.804548,0.010241813,0.001502558,-0.99894315,0.044782523,-0.32676697,-0.098083496,10.014786,0.073013306,0.006317139,0.034454346
2023/5/9 22:17,1040,0.3014469,-0.04738031,-0.24822807,-0.1946531,4.69E-04,9.804718,0.009721188,4.10E-04,-0.9988871,0.046149716,0.06947327,-0.08970642,9.679596,0.022949219,-0.0320282,0.018478394
2023/5/9 22:17,1080,0.08524163,0.009749213,0.04178047,-0.16183081,-0.006307644,9.805313,0.008023284,7.23E-04,-0.99886125,0.047024213,-0.04664612,0.006072998,9.97229,-0.012207031,-0.05758667,0.013153076
2023/5/9 22:17,1120,-0.12882863,0.034860246,-0.09457111,-0.16328034,-0.011318117,9.8052845,0.008288147,9.75E-04,-0.9988211,0.047820706,-0.30880737,0.020431519,9.835815,-0.048431396,0.04360962,-0.011352539
2023/5/9 22:17,1161,-0.23678333,-0.019259239,0.5815563,-0.17672592,-0.029079402,9.805015,0.008927115,0.001923835,-0.99874955,0.049152736,-0.4309082,-0.049591064,10.491837,0.022949219,-0.013916016,0.024871826
2023/5/9 22:17,1200,0.084990084,0.082877286,-0.124186516,-0.17260171,-0.00314222,9.80513,0.008781119,6.06E-04,-0.9986737,0.050729305,-0.09631348,0.08268738,9.762802,0.05596924,-0.028839111,0.029129028
2023/5/9 22:17,1240,-0.017389879,0.001681875,-0.29632568,-0.15635456,0.016762363,9.805389,0.008005818,-4.38E-04,-0.9986102,0.05209065,-0.16815186,0.03300476,9.622742,0.024017334,-0.02456665,0.007827759
2023/5/9 22:17,1280,0.14611569,-0.02844485,-0.083016396,-0.15086547,0.007195961,9.805488,0.007700846,4.39E-05,-0.99854714,0.05333228,-0.005340576,-0.007095337,9.850189,-0.046295166,-0.008590698,0.009948731
2023/5/9 22:17,1320,0.012177929,0.050431162,-0.2674656,-0.15277678,-0.001539164,9.80546,0.007773879,5.02E-04,-0.99848884,0.054399557,-0.19926453,0.041381836,9.657455,-0.024993896,0.04147339,0.003570557
2023/5/9 22:17,1360,-0.08489822,0.026436755,0.18843555,-0.16836375,-0.017171925,9.80519,0.008522345,0.001352611,-0.9984087,0.05572814,-0.31599426,-0.020874023,10.174011,-0.034576416,0.035079956,0.03126526
2023/5/9 22:17,1401,0.041927993,-0.024745753,-0.053362846,-0.1732987,-0.020120962,9.805098,0.008689489,0.001544959,-0.99830353,0.057551827,-0.17831421,-0.013687134,9.851379,-0.006881714,-0.021377563,0.02166748
2023/5/9 22:17,1440,0.19275546,-0.05552594,0.18436146,-0.14895277,-0.018975137,9.805501,0.007377313,0.001336216,-0.99826705,0.05836707,-0.008926392,-0.11843872,10.062668,0.04638672,-0.03842163,-0.006027222
2023/5/9 22:17,1480,0.035087407,-0.09264541,-0.38590527,-0.13792533,-0.010989839,9.805674,0.006978876,0.001089073,-0.9982391,0.05889612,-0.07775879,-0.10406494,9.551514,-0.034576416,0.014846802,-0.028396606
2023/5/9 22:17,1520,-0.21467434,0.01329995,0.15982628,-0.15847515,-0.03555774,9.8053055,0.007958715,0.002288329,-0.9982107,0.059217453,-0.38661194,-0.001113892,10.093201,-0.0335083,0.052124023,3.66E-04
2023/5/9 22:17,1561,-0.029749304,0.13208522,0.14238262,-0.18304566,-0.028691292,9.804899,0.009227404,0.002025532,-0.9981194,0.060566794,-0.1855011,0.113204956,10.062668,0.039993286,0.023361206,0.036590576
2023/5/9 22:17,1600,-0.033463925,-0.008545576,0.025004387,-0.1841247,-0.01246026,9.8049135,0.00933102,0.001213799,-0.99804765,0.061743785,-0.24536133,-0.026260376,9.935776,0.024017334,-0.005401611,0.019546509
2023/5/9 22:17,1640,0.2037561,0.019513305,-0.3687086,-0.17795233,-0.002334783,9.805036,0.009048079,6.88E-04,-0.9979894,0.062728286,0.044937134,0.05155945,9.588028,-0.002624512,-0.006454468,0.022735596
2023/5/9 22:17,1680,0.05778548,-0.031774666,0.15742302,-0.17929463,-0.016137313,9.804998,0.009072087,0.001395697,-0.9979813,0.06284168,-0.14120483,-0.08370972,10.095596,-0.03883362,0.027633667,-0.029464722
2023/5/9 22:17,1720,-0.06060438,-0.05322166,-0.13863945,-0.18791865,-0.022440415,9.804824,0.00949052,0.001745527,-0.9979673,0.062993,-0.2549286,-0.057373047,9.79512,-0.001556397,0.007385254,0.007827759
2023/5/9 22:17,1761,-0.017390966,-0.012628891,0.116518974,-0.19308032,-0.02942978,9.804706,0.009770733,0.002150133,-0.9979184,0.06370777,-0.21842957,-0.05618286,10.026764,-0.009017944,0.014846802,0.017410278
2023/5/9 22:17,1800,-0.029594123,0.025414284,0.12345791,-0.1942615,-0.022659719,9.804699,0.009810791,0.001787108,-0.9978992,0.06401414,-0.25074768,-0.004104614,10.095596,0.03466797,-0.010726929,-0.003890991
2023/5/9 22:17,1840,0.096101135,0.04036898,0.004440308,-0.18784909,-0.005205184,9.80485,0.009437424,7.07E-04,-0.9978628,0.064654514,-0.09870911,0.058746338,9.959122,0.059173584,-0.028839111,0.015274048
2023/5/9 22:17,1880,0.10142316,-0.09072375,-0.2193451,-0.16995466,0.014906967,9.805166,0.008696637,-1.97E-04,-0.9978627,0.06476397,-0.0765686,-0.0867157,9.684982,0.031463623,-0.004333496,-0.015609741
2023/5/9 22:17,1920,-0.11455597,-0.027245138,-0.3437729,-0.1758425,0.001867617,9.805074,0.008953119,4.87E-04,-0.9978528,0.064880066,-0.28427124,-0.03164673,9.566483,-0.09849548,0.013778687,-0.015609741
2023/5/9 22:17,1960,0.081761986,-0.066146135,0.6595669,-0.17660592,-0.04257217,9.804968,0.008844671,0.002751309,-0.997843,0.06498805,-0.0879364,-0.11125183,10.560669,-0.060150146,0.007385254,-0.004959106
2023/5/9 22:17,2001,-0.16122887,-0.001158431,0.03140831,-0.17327651,-0.028977014,9.805076,0.008720008,0.00204978,-0.9978366,0.065129414,-0.21722412,-0.08909607,9.87233,0.0921936,-0.029891968,0.019546509
2023/5/9 22:17,2040,0.087880775,0.08046799,-0.15423965,-0.16720738,-0.007876816,9.8052225,0.008480851,9.60E-04,-0.9978129,0.06554815,-0.0765686,0.04975891,9.802902,0.009094238,0.011642456,-0.002822876
2023/5/9 22:17,2080,-0.05572869,-0.016016768,0.034640312,-0.17494415,-0.005985511,9.805088,0.008880934,8.88E-04,-0.99781686,0.06543559,-0.2537384,-0.03942871,9.936386,0.013366699,0.011642456,-0.01348877
2023/5/9 22:17,2120,-0.08447975,-0.034799702,-0.2503786,-0.17790447,-0.002210741,9.805036,0.009041431,7.41E-04,-0.9978065,0.06557354,-0.19926453,-0.01966858,9.627533,-0.014343262,-0.002197266,0.018478394
2023/5/9 22:17,2160,0.076700166,-0.05257588,0.07777786,-0.1778088,-0.018087912,9.805021,0.008985958,0.001637132,-0.99778247,0.065929465,-0.07237244,-0.09089661,9.980072,-0.04522705,0.005264282,0.001434326
2023/5/9 22:17,2200,0.009159461,-0.04219368,0.2483654,-0.1813986,-0.031319197,9.804923,0.009123778,0.002203124,-0.99778104,0.06591578,-0.18370056,-0.08432007,10.1440735,0.002700806,-0.003265381,-0.002822876
2023/5/9 22:17,2241,0.08172017,0.021879377,-0.19300175,-0.17508684,-0.02158651,9.805063,0.008835216,0.001687358,-0.99777997,0.06598667,-0.11427307,-0.002319336,9.697556,0.013366699,-0.004333496,0.004623413
2023/5/9 22:17,2280,-0.095583215,0.09560482,0.003175736,-0.17746258,-0.021099186,9.805022,0.008957617,0.001671189,-0.99777424,0.066056624,-0.27767944,0.08627319,9.917831,-0.020721436,0.024429321,-0.016677856
2023/5/9 22:17,2320,-0.021449074,0.016983055,0.1187191,-0.18699934,-0.019697975,9.804847,0.009447201,0.001634204,-0.9977546,0.06628603,-0.19029236,0.005462647,9.989044,0.009094238,-0.010726929,0.013153076
2023/5/9 22:17,2360,0.057640493,-0.052133266,0.13340664,-0.17747219,-0.012595709,9.805036,0.008986605,0.001239607,-0.99776715,0.06616917,-0.13104248,-0.09448242,10.017181,0.02720642,-0.005401611,-0.014541626
2023/5/9 22:17,2400,-0.011093885,-0.06479655,-0.20468426,-0.1734517,-0.003011802,9.805117,0.008814574,7.36E-04,-0.997787,0.065900244,-0.18370056,-0.06576538,9.664032,0.022949219,-0.008590698,-0.007095337
2023/5/9 22:17,2442,0.06937863,0.037977908,0.072455406,-0.17178373,-0.006371197,9.805144,0.008719715,8.89E-04,-0.99777883,0.0660347,-0.15916443,0.029403687,10.014191,-0.013275147,0.006317139,0.002502441
2023/5/9 22:17,2481,-0.08077182,0.042789407,0.015741348,-0.18127146,-0.002571195,9.804975,0.009324654,7.41E-04,-0.99775046,0.066381924,-0.31478882,0.045578003,9.908249,-4.88E-04,0.026565552,-0.019866943
2023/5/9 22:17,2520,-0.05506806,-0.043420676,0.15857601,-0.19260445,-0.002555712,9.804759,0.009787398,7.20E-04,-0.9977384,0.06649641,-0.23098755,-0.0513916,9.998032,0.03253174,-0.007522583,0.015274048
2023/5/9 22:17,2560,0.09848522,0.016975999,-0.071642876,-0.17817013,0.015265324,9.80502,0.009116115,-1.76E-04,-0.9977681,0.06614883,-0.08494568,0.0395813,9.851379,0.02720642,-0.004333496,-0.009216309
2023/5/9 22:17,2600,-0.12635489,-0.096454866,-0.24664211,-0.18652317,0.017056504,9.804861,0.00954717,-2.39E-04,-0.9977634,0.066158965,-0.31777954,-0.06755066,9.639496,5.80E-04,0.019104004,-0.007095337
2023/5/9 22:17,2640,0.004792288,0.015225088,0.089188576,-0.19678405,0.001907505,9.804676,0.010018004,5.69E-04,-0.99774176,0.066412665,-0.19387817,0.012649536,10.008209,-0.042037964,0.007385254,0.013153076
2023/5/9 22:17,2681,0.03260018,-0.010876139,0.05849266,-0.19240214,1.93E-04,9.804762,0.009789293,6.41E-04,-0.9977491,0.066336624,-0.22381592,-0.044815063,9.95433,0.020812988,-0.018173218,-0.002822876
2023/5/9 22:17,2721,0.074213,-0.054645017,-0.022808075,-0.18626711,-3.29E-04,9.804881,0.009475191,6.49E-04,-0.9977335,0.06661604,-0.08554077,-0.056777954,9.880707,-0.012207031,0.011642456,0.016342163
2023/5/9 22:17,2760,0.018897936,0.05233665,0.019828796,-0.18892848,-0.003139646,9.80483,0.00960099,8.02E-04,-0.99772686,0.06669556,-0.16096497,0.043182373,9.905258,0.002700806,-0.007522583,0.007827759
2023/5/9 22:17,2801,0.028112337,0.015337936,0.15497494,-0.19324268,9.03E-04,9.804746,0.009834248,6.11E-04,-0.99772525,0.06668725,-0.21842957,-0.014877319,10.082428,0.003768921,0.09260559,-0.010284424
2023/5/9 22:17,2840,-0.097326934,0.09610035,-0.28361416,-0.21775278,0.007153501,9.80423,0.010715951,1.33E-04,-0.997693,0.06703592,-0.145401,0.25805664,9.593414,0.0410614,-0.14601135,0.041915894
2023/5/9 22:17,2880,-0.12577812,-0.20373084,0.15412426,-0.18873428,0.01063217,9.804828,0.009638018,9.39E-05,-0.99777544,0.06596452,-0.50512695,-0.28004456,10.016586,-0.013275147,0.040405273,-0.051834106
2023/5/9 22:17,2920,0.3047924,0.10667197,0.009181023,-0.1829354,0.00498852,9.804943,0.009323633,3.70E-04,-0.99771595,0.06690159,0.1508789,0.13475037,9.968704,-0.044158936,-0.025634766,0.071746826
2023/5/9 22:17,2961,-0.21929409,-0.10698822,0.46770096,-0.22097315,-0.001244592,9.804161,0.011238183,8.11E-04,-0.9977341,0.066329755,-0.4883728,-0.11723328,10.318253,0.084732056,0.077697754,-0.045440674
2023/5/9 22:17,3000,0.22258878,0.07674256,-0.5089693,-0.22293602,0.0384625,9.80404,0.01147211,-0.001205445,-0.9977463,0.066100605,0.09642029,0.09585571,9.469513,0.05278015,-0.033096313,0.006759644
2023/5/9 22:17,3040,-0.2654835,-0.09275974,-0.13958836,-0.22810446,0.035036966,9.803935,0.011723056,-0.001019465,-0.99777573,0.06561345,-0.4883728,-0.05378723,9.774765,-0.042037964,0.025497437,-0.00177002
2023/5/9 22:17,3080,0.0833845,0.003421434,0.21980667,-0.22979422,0.011811347,9.80395,0.011731293,1.70E-04,-0.9977668,0.06575538,-0.113082886,0.05215454,10.193756,-0.06227112,0.009521484,0.012084961
2023/5/9 22:17,3120,-0.046293274,0.05386234,0.22230911,-0.22901873,0.011645328,9.803968,0.011691308,1.73E-04,-0.9977796,0.06556796,-0.2711029,0.06173706,10.033936,0.05810547,-0.02670288,0.008895874
2023/5/9 22:17,3161,0.17589511,0.07300177,-0.14808846,-0.2184955,0.0315024,9.804165,0.011223995,-8.96E-04,-0.9977851,0.06555973,-0.113082886,0.07070923,9.763397,0.011230469,0.004196167,-0.017745972
2023/5/9 22:17,3200,-0.18651152,-0.17966245,-0.08636665,-0.22298254,0.02506527,9.804083,0.011428795,-5.35E-04,-0.9978108,0.06513604,-0.4386902,-0.17649841,9.863953,-0.037765503,-0.00112915,-0.009216309
2023/5/9 22:17,3240,0.012034148,-0.08124907,0.26725197,-0.22158644,0.017871961,9.804131,0.01133383,-1.75E-04,-0.99782085,0.06500012,-0.21064758,-0.06695557,10.174011,0.019744873,0.003128052,0.004623413
2023/5/9 22:17,3280,-0.13120145,-0.010647588,0.050271988,-0.22255501,0.03164693,9.804073,0.011428823,-8.72E-04,-0.99781674,0.06504137,-0.35849,0.019836426,9.942368,0.05064392,-0.021377563,0.019546509
2023/5/9 22:17,3320,0.033312812,0.024621136,-0.040337563,-0.21242319,0.05273022,9.804208,0.010984477,-0.00197129,-0.9977776,0.065691285,-0.15078735,0.0683136,9.868744,0.04425049,-0.028839111,0.03338623
2023/5/9 22:17,3361,0.16482854,-0.08954658,-0.045435905,-0.19959594,0.063265465,9.804415,0.010367856,-0.002547093,-0.99776274,0.065996885,-0.06819153,-0.024459839,9.859161,0.031463623,-0.00112915,-0.006027222
2023/5/9 22:17,3400,0.1300302,-0.11036996,-0.36870098,-0.19421072,0.05967221,9.804545,0.010080693,-0.002386833,-0.997795,0.06555757,-0.067596436,-0.05558777,9.520981,-0.03564453,0.007385254,-0.017745972
2023/5/9 22:17,3440,-0.008980155,-0.0489958,0.2621584,-0.19828476,0.02998821,9.804599,0.010188289,-8.68E-04,-0.9978299,0.06504581,-0.22979736,-0.024459839,10.160843,-0.053756714,0.030822754,-0.028396606
2023/5/9 22:17,3480,-0.1487317,-0.047779426,0.14552498,-0.20131552,0.025480935,9.804551,0.010327328,-6.33E-04,-0.99785227,0.064682335,-0.38900757,0.038391113,10.026764,0.037857056,-0.0362854,3.66E-04
2023/5/9 22:17,3520,-0.007729307,-0.026356604,-0.22158718,-0.18891543,0.035100833,9.804768,0.009728317,-0.001160786,-0.99784374,0.064899296,-0.1633606,0.035995483,9.680206,-0.013275147,-0.0320282,0.011016846
2023/5/9 22:17,3561,0.02034232,0.032420732,0.24448776,-0.18259077,0.025189813,9.804918,0.009378023,-6.66E-04,-0.9978445,0.06494516,-0.22021484,0.012054443,10.118332,5.80E-04,-0.00112915,-0.012420654
2023/5/9 22:17,3600,1.62E-05,-0.00858241,-0.2622223,-0.17755963,0.04119944,9.804956,0.009142905,-0.001609156,-0.99784267,0.06499099,-0.119659424,0.020431519,9.606583,0.035736084,-0.010726929,-0.009216309
2023/5/9 22:17,3640,-0.06271376,-0.005660702,0.25683022,-0.18510343,0.030598324,9.804856,0.009519477,-9.44E-04,-0.9978432,0.06494169,-0.2501526,0.027023315,10.163834,-0.044158936,0.029754639,-0.015609741
2023/5/9 22:17,3680,0.06860304,-0.03235361,-0.07516575,-0.18559095,0.030052636,9.804848,0.009542528,-9.14E-04,-0.99783957,0.06499451,-0.12684631,-0.011886597,9.819656,0.017623901,-0.022445679,3.66E-04
2023/5/9 22:17,3720,0.15129672,-0.070184104,0.10443497,-0.16853413,0.027507331,9.805163,0.008666277,-8.40E-04,-0.997839,0.06512713,-0.009536743,-0.06636047,10.011795,-0.006881714,-0.003265381,-0.01348877
2023/5/9 22:17,3761,-0.14883752,-0.06641421,-0.11431122,-0.17564732,0.024660332,9.805046,0.009018717,-6.72E-04,-0.9978406,0.065056354,-0.29922485,-0.007705689,9.856766,-0.005813599,0.008453369,-0.004959106
2023/5/9 22:17,3800,-0.0809011,0.16107349,0.17895985,-0.1814423,0.02993393,9.804925,0.009331595,-9.16E-04,-0.99780154,0.065606475,-0.24775696,0.20179749,10.087814,0.03466797,-0.008590698,0.008895874
2023/5/9 22:17,3840,-0.047906503,0.04816802,-0.012227058,-0.18297377,0.055486232,9.804786,0.009496547,-0.002204404,-0.99775255,0.066293724,-0.23997498,0.16407776,9.901657,0.039993286,-0.007522583,-0.006027222
2023/5/9 22:17,3880,-0.04142943,-0.114818126,-0.09572601,-0.18437786,0.06367602,9.80471,0.009545402,-0.0025932,-0.9977259,0.06667194,-0.21603394,-0.0513916,9.818466,0.009094238,-0.022445679,0.007827759
2023/5/9 22:17,3920,0.07949118,-0.04978905,-0.010511398,-0.17083356,0.059454635,9.804982,0.0088937,-0.002442127,-0.9977186,0.066877395,-0.091537476,0.018630981,9.887299,0.005905151,-0.00112915,0.008895874
2023/5/9 22:17,3960,-0.05917205,0.024284255,-0.016926765,-0.18024836,0.056362193,9.8048315,0.009363766,-0.002246014,-0.9976667,0.067590185,-0.24536133,0.086868286,9.880112,-0.013275147,0.030822754,0.005691528
2023/5/9 22:17,4000,-0.021738902,0.1469312,0.1503973,-0.18609686,0.063793525,9.804677,0.009688229,-0.002599101,-0.9976291,0.06808529,-0.21304321,0.22573853,10.065659,0.015487671,-0.02456665,0.026992798
2023/5/9 22:17,4041,-0.03788036,-0.07631034,-0.07214832,-0.175991,0.07412423,9.80479,0.009211107,-0.003156425,-0.9976077,0.06844028,-0.20106506,-0.008895874,9.848389,0.021881104,-0.02670288,0.02166748
2023/5/9 22:17,4080,0.15176643,-0.010585271,-0.06564522,-0.16976237,0.075154155,9.8048935,0.008899342,-0.003226388,-0.9975782,0.068906315,-0.018508911,0.06112671,9.822647,5.80E-04,0.02017212,0.017410278
2023/5/9 22:17,4120,-0.09268083,-0.10578811,0.033779144,-0.17271964,0.075462334,9.804838,0.00905283,-0.003226172,-0.99753475,0.06951309,-0.2609253,-0.005310059,9.863953,0.028274536,-0.004333496,0.007827759
2023/5/9 22:17,4160,-0.029352099,0.12461768,-0.3089304,-0.17220016,0.08476766,9.804771,0.009061643,-0.00369585,-0.9974908,0.07011658,-0.1633606,0.17546082,9.627533,-0.017532349,-0.010726929,0.015274048
2023/5/9 22:17,4200,0.05252041,-0.04984571,0.41360378,-0.17043526,0.07311464,9.804896,0.008932218,-0.003103598,-0.99744785,0.07076994,-0.110687256,6.87E-04,10.28653,-0.003677368,0.0105896,0.011016846
2023/5/9 22:17,4241,-0.015208766,-0.022778004,-0.09806919,-0.17224117,0.08268248,9.804789,0.00901076,-0.003703453,-0.99740434,0.07134188,-0.16455078,0.09284973,9.771774,0.045318604,-0.02456665,0.008895874
2023/5/9 22:17,4280,0.019871369,-0.002055101,-0.16287231,-0.16481316,0.09546012,9.804801,0.008732673,-0.004248614,-0.997349,0.07211537,-0.15078735,0.10542297,9.716705,0.003768921,0.011642456,0.013153076
2023/5/9 22:17,4320,-0.08226888,-0.019199476,-0.021717072,-0.1775942,0.08700631,9.804655,0.009354587,-0.003764313,-0.997288,0.072903685,-0.27049255,0.07550049,9.91243,-0.022857666,0.014846802,0.004623413
2023/5/9 22:17,4360,7.85E-05,0.009312056,0.17990875,-0.18218154,0.08297625,9.804606,0.009574609,-0.003537689,-0.99725133,0.07338642,-0.1675415,0.11021423,10.100983,0.018692017,0.003128052,0.004623413
2023/5/9 22:17,4400,-0.004173666,-0.02652999,-0.023495674,-0.18706858,0.09264271,9.804427,0.009862383,-0.004003477,-0.9971908,0.07414376,-0.17532349,0.10183716,9.887894,0.03678894,0.002059937,0.026992798
2023/5/9 22:17,4440,0.08191092,0.10468609,-0.16499233,-0.1803148,0.102964915,9.804452,0.009560276,-0.004549058,-0.9971539,0.074646264,-0.12445068,0.21855164,9.740051,-0.006881714,-0.005401611,-0.003890991
2023/5/9 22:17,4480,0.024641842,0.017122246,0.1656456,-0.18019974,0.10313622,9.804452,0.009556836,-0.004554519,-0.997125,0.075031035,-0.14779663,0.11500549,10.068665,0.011230469,0.009521484,0.002502441
2023/5/9 22:17,4521,0.09128356,-0.07037008,-0.047166824,-0.17502192,0.109721705,9.804474,0.009319675,-0.004907428,-0.99711156,0.07521687,-0.09931946,0.035995483,9.865753,0.015487671,0.0105896,-0.023071289
2023/5/9 22:17,4560,-0.044608384,-0.10923262,-0.09016609,-0.18597557,0.10347634,9.80434,0.009854496,-0.004543966,-0.9970781,0.07561383,-0.2531433,-0.020874023,9.831039,0.004837036,0.023361206,-0.016677856
2023/5/9 22:17,4600,0.035391092,0.0714139,0.07689953,-0.18846872,0.099742375,9.804332,0.009939204,-0.004366197,-0.9970616,0.075830355,-0.15318298,0.15809631,9.9704895,-0.001556397,-0.010726929,0.002502441
2023/5/9 22:17,4640,-0.08111414,0.09151616,0.110364914,-0.18665703,0.1092191,9.804265,0.009913823,-0.004828157,-0.99703664,0.07613359,-0.25793457,0.24429321,10.020767,0.020812988,-0.017120361,0.005691528
2023/5/9 22:17,4680,0.077674374,0.03216389,-0.26356316,-0.17421488,0.13080846,9.80423,0.009365728,-0.005973065,-0.99702746,0.076242425,-0.093933105,0.15510559,9.601196,0.049575806,-0.022445679,0.001434326
2023/5/9 22:17,4720,0.027821377,-0.119332775,-0.10940647,-0.17823125,0.12459975,9.804238,0.00954653,-0.00564053,-0.99701756,0.076374575,-0.18251038,-0.002914429,9.809494,-0.06440735,0.048934937,-0.022003174
2023/5/9 22:17,4760,-0.1406256,-0.08136509,0.29939747,-0.20018254,0.09894922,9.804107,0.010563253,-0.004249542,-0.9970038,0.07651028,-0.32377625,0.013244629,10.198547,0.012298584,0.002059937,0.009948731
2023/5/9 22:17,4801,0.05808094,0.09452597,-0.22478199,-0.19133617,0.11240193,9.804139,0.010169538,-0.0049607,-0.99694955,0.07722429,-0.145401,0.23171997,9.659851,0.011230469,-0.046936035,0.028060913
2023/5/9 22:17,4840,0.16429581,-0.04036136,0.23733425,-0.17833458,0.11235153,9.804385,0.009510905,-0.005004396,-0.9969158,0.07773937,-0.07357788,0.031204224,10.105774,0.001647949,0.013778687,-0.014541626
2023/5/9 22:17,4880,-0.0818585,0.039751858,0.04915905,-0.18706334,0.116882436,9.804169,0.009972046,-0.005201293,-0.9969192,0.07762466,-0.25613403,0.12397766,9.919617,0.024017334,0.029754639,-0.01348877
2023/5/9 22:17,4920,-0.15229201,0.029446825,-0.1629982,-0.20059639,0.12648778,9.803782,0.010699519,-0.005633427,-0.9968902,0.07787019,-0.40756226,0.13175964,9.748428,0.006973267,0.028686523,3.66E-04
2023/5/9 22:17,4960,-0.13917066,-0.066396266,0.005166054,-0.21186562,0.11889457,9.80364,0.011270843,-0.00513141,-0.9968355,0.07852185,-0.30999756,0.08508301,9.972885,-0.016464233,-0.002197266,0.020614624
2023/5/9 22:17,5001,0.11812116,0.10405039,0.08833408,-0.21149401,0.119453564,9.803641,0.011199263,-0.005313558,-0.9967766,0.07926383,-0.088531494,0.22573853,9.975876,0.019744873,0.004196167,0.023803711
2023/5/9 22:17,5040,0.06600414,0.004102826,-0.113012314,-0.20782094,0.12788208,9.803614,0.011082324,-0.005656164,-0.99674743,0.079622746,-0.13761902,0.13356018,9.811279,-0.015396118,0.003128052,0.002502441
2023/5/9 22:17,5080,0.001653865,-0.08444405,0.08858681,-0.20538427,0.11950769,9.80377,0.01092563,-0.005237879,-0.9967331,0.07985166,-0.20405579,0.04197693,9.996826,-0.006881714,0.016967773,0.005691528
2023/5/9 22:17,5120,0.019089371,-0.011526279,0.007286072,-0.22254746,0.11867636,9.803406,0.011797387,-0.005119605,-0.99668187,0.08037315,-0.23817444,0.0970459,9.923813,0.011230469,0.03189087,0.009948731
2023/5/9 22:17,5160,-0.024439663,0.018923819,-0.013636589,-0.22836465,0.12171853,9.803235,0.012107259,-0.005246501,-0.9966516,0.08069412,-0.2645111,0.16468811,9.950745,0.004837036,-0.020309448,0.003570557
2023/5/9 22:17,5200,0.011993259,0.020119682,-0.07051182,-0.22207189,0.12793809,9.803301,0.011813831,-0.005586751,-0.99664134,0.080840856,-0.20944214,0.16407776,9.787933,0.005905151,-0.003265381,0.003570557
2023/5/9 22:18,5240,0.07962035,-0.0352519,0.07965851,-0.21990773,0.12909609,9.803334,0.011709901,-0.00565184,-0.99662364,0.08106916,-0.1675415,0.09284973,9.916626,0.0410614,0.014846802,-0.015609741
2023/5/9 22:18,5281,-0.073438436,-0.02535586,-0.065802574,-0.231229,0.13096447,9.803049,0.012362361,-0.005618393,-0.9965886,0.08140528,-0.3153839,0.11680603,9.865158,-0.023925781,0.014846802,-0.010284424
2023/5/9 22:18,5320,0.022169322,-0.060437724,0.13419533,-0.23451331,0.12208681,9.803085,0.012335723,-0.005232257,-0.99658185,0.0815176,-0.16993713,0.09225464,10.000427,0.004837036,-0.02456665,0.002502441
2023/5/9 22:18,5360,0.017895937,0.006212533,0.07498932,-0.21379584,0.12945652,9.803464,0.011401578,-0.005693714,-0.99661493,0.0812173,-0.20405579,0.14852905,10.003418,0.037857056,-0.020309448,-0.019866943
2023/5/9 22:18,5400,-0.044455335,0.039176717,-0.25797176,-0.21718408,0.14465041,9.803178,0.011635968,-0.006453376,-0.9966179,0.081090674,-0.2866516,0.16468811,9.645477,-0.012207031,0.0105896,-0.014541626
2023/5/9 22:18,5440,-0.035774827,-0.047497585,0.2399025,-0.22049199,0.13271394,9.803272,0.011754849,-0.005832738,-0.9966182,0.08111679,-0.25134277,0.08029175,10.132111,-0.015396118,-0.019241333,-0.004959106
2023/5/9 22:18,5480,-0.065295875,0.061745316,-0.059184074,-0.21927214,0.14091267,9.803186,0.01172736,-0.006253407,-0.9966086,0.08120724,-0.26930237,0.20478821,9.844208,0.024017334,-0.0128479,0.009948731
2023/5/9 22:18,5520,-0.054530323,-0.04254532,-0.11376572,-0.21762581,0.14500406,9.803163,0.011662417,-0.00646496,-0.9965857,0.08148081,-0.2944336,0.1144104,9.823257,-0.010070801,-0.016052246,0.008895874
2023/5/9 22:18,5561,0.105483666,0.015569523,0.020853996,-0.20809077,0.1366624,9.80349,0.011144445,-0.006078105,-0.9965758,0.081704445,-0.12625122,0.16886902,9.942368,-0.016464233,-0.020309448,0.003570557
2023/5/9 22:18,5600,0.022427708,0.040747076,0.13358974,-0.19556588,0.14181134,9.803675,0.010529195,-0.006392167,-0.9965823,0.08168198,-0.15437317,0.18862915,10.0099945,0.035736084,-0.02456665,0.011016846
2023/5/9 22:18,5640,-0.09600781,-0.08726284,-0.12889671,-0.19310659,0.14715292,9.803644,0.010456576,-0.0066179,-0.996572,0.08179897,-0.28007507,0.074905396,9.808884,-0.010070801,-0.003265381,-0.008148193
2023/5/9 22:18,5680,0.066000864,0.04554926,-0.033468246,-0.18769743,0.1378276,9.803885,0.010112585,-0.006222609,-0.9965889,0.081667475,-0.105895996,0.1946106,9.867538,-0.029251099,-0.023498535,-0.008148193
2023/5/9 22:18,5720,-6.86E-04,-0.024613962,0.03143978,-0.17795019,0.128757,9.80419,0.009578814,-0.00580315,-0.9966048,0.08156886,-0.18251038,0.09944153,9.924408,-0.026062012,-0.010726929,-0.004959106
2023/5/9 22:18,5761,-0.011664256,-0.040316872,0.20874691,-0.17703901,0.11845117,9.804337,0.009489385,-0.005283585,-0.9966119,0.08152745,-0.19807434,0.086868286,10.140488,-0.004745483,-0.006454468,-0.006027222
2023/5/9 22:18,5800,0.033075944,0.001354411,-0.4045868,-0.17427039,0.13054404,9.804232,0.009399042,-0.00590957,-0.9966085,0.081536695,-0.13342285,0.14193726,9.471298,0.005905151,-0.003265381,-0.003890991
2023/5/9 22:18,5840,-0.07092336,-0.03971003,0.24698544,-0.17905357,0.1099879,9.804399,0.009555838,-0.004846538,-0.9966257,0.08137822,-0.2501526,0.09524536,10.145874,-0.060150146,0.0105896,-0.014541626
2023/5/9 22:18,5880,0.067969024,0.062029235,0.00372982,-0.17436469,0.10836231,9.804501,0.009310395,-0.004784124,-0.9966349,0.081297934,-0.047836304,0.15031433,9.882507,0.03678894,-0.030960083,-0.00177002
2023/5/9 22:18,5920,0.07214099,0.026231445,-0.20575905,-0.1591489,0.11580263,9.804675,0.008566875,-0.005227034,-0.99665576,0.08109579,-0.095718384,0.072509766,9.744843,-0.03883362,-0.003265381,-0.019866943
2023/5/9 22:18,5960,-0.048261628,0.023711205,0.19790363,-0.1631512,0.09573293,9.804826,0.008703077,-0.004116736,-0.99669623,0.08064714,-0.20585632,0.1078186,10.13031,-0.03138733,0.002059937,-0.027328491
2023/5/9 22:18,6001,-0.14702514,0.064793125,-0.011023521,-0.16630282,0.09869824,9.804744,0.008818729,-0.004463439,-0.99670625,0.08049219,-0.3117981,0.14971924,9.91243,0.049575806,-0.02670288,-0.004959106
2023/5/9 22:18,6040,-0.044335946,0.045898154,-0.21075726,-0.15415877,0.11247502,9.804793,0.008298025,-0.005080937,-0.99668217,0.08080849,-0.22261047,0.14492798,9.688583,-0.005813599,-0.016052246,0.005691528
2023/5/9 22:18,6080,-0.07587387,-8.11E-04,0.003644943,-0.15781647,0.09279818,9.804941,0.008404451,-0.004062439,-0.9966531,0.08121267,-0.24536133,0.091659546,9.9387665,-0.09423828,-0.019241333,0.013153076
2023/5/9 22:18,6121,-0.005604118,0.058105335,0.22929573,-0.14859481,0.077573955,9.805218,0.007874685,-0.003322237,-0.99661165,0.081805326,-0.15856934,0.137146,10.1285095,0.009094238,-0.021377563,0.026992798
2023/5/9 22:18,6160,-0.043641016,-0.023811005,0.071847916,-0.14315046,0.08572006,9.80523,0.00763455,-0.003753718,-0.9965562,0.08248247,-0.19508362,0.06651306,9.9782715,0.014419556,0.015914917,0.018478394
2023/5/9 22:18,6200,0.020926625,0.054765597,0.02921009,-0.14841513,0.091778874,9.805098,0.007931222,-0.0040323,-0.9964779,0.08338212,-0.14060974,0.13954163,9.964508,0.019744873,-0.0128479,0.034454346
2023/5/9 22:18,6240,0.015608951,0.033138372,0.005933762,-0.14488788,0.11075831,9.804955,0.007838317,-0.005002912,-0.9963805,0.08449499,-0.113082886,0.17845154,9.941772,0.042129517,-0.005401611,0.03126526
2023/5/9 22:18,6280,-0.08553147,-0.026106514,-0.14803219,-0.14025198,0.12204933,9.804888,0.007655396,-0.00559114,-0.99631894,0.085198164,-0.25193787,0.0569458,9.805893,0.016555786,-0.03416443,0.004623413
2023/5/9 22:18,6321,0.07703738,-0.09547064,0.18562984,-0.12875672,0.120190375,9.805069,0.007067038,-0.005541845,-0.99626577,0.08587086,-0.04963684,0.048568726,10.112946,0.042129517,-0.020309448,0.025939941
2023/5/9 22:18,6360,0.061337844,-0.02370818,-0.3951311,-0.12014228,0.13811949,9.804941,0.006727302,-0.006514218,-0.99616694,0.086969905,-0.084350586,0.11201477,9.559296,0.013366699,0.006317139,0.038711548
2023/5/9 22:18,6400,-0.011632763,-0.07455003,0.20872879,-0.11996438,0.124239914,9.805129,0.006653185,-0.005768712,-0.9960399,0.08846976,-0.1166687,0.031799316,10.11055,-0.022857666,-0.016052246,0.03765869
2023/5/9 22:18,6440,0.028878354,-0.028520629,0.24192238,-0.09829359,0.1288219,9.805311,0.005581101,-0.006091936,-0.9959293,0.08975862,-0.07357788,0.10003662,10.182983,0.059173584,-0.06504822,0.019546509
2023/5/9 22:18,6480,0.112376794,0.087240025,-0.3736906,-0.080564365,0.16000018,9.805014,0.004830696,-0.007751951,-0.9958381,0.09068067,0.025787354,0.26643372,9.529968,0.043182373,-7.63E-05,-0.006027222
2023/5/9 22:18,6521,-0.009453148,0.011227906,-0.0857048,-0.08121658,0.15156414,9.805142,0.004829932,-0.007317157,-0.9957775,0.09138036,-0.04185486,0.12219238,9.888489,-0.07398987,0.004196167,-0.020935059
2023/5/9 22:18,6560,-0.1909197,-0.05376315,0.17683983,-0.08405911,0.13322344,9.805385,0.00489038,-0.0063714,-0.9957605,0.09163224,-0.27049255,0.09225464,10.007614,-0.013275147,0.006317139,-0.028396606
2023/5/9 22:18,6600,-0.09233367,0.04030657,-0.002928734,-0.08773767,0.12897578,9.805409,0.005060931,-0.006135551,-0.9957068,0.09222107,-0.18609619,0.18563843,9.921417,-0.004745483,-0.00112915,3.66E-04
2023/5/9 22:18,6640,-0.036794208,0.060070485,0.11431408,-0.08671773,0.13014057,9.805403,0.005020468,-0.006194756,-0.9956193,0.09315948,-0.10409546,0.18682861,10.097992,0.011230469,0.004196167,-0.010284424
2023/5/9 22:18,6681,-0.13181332,0.030598402,0.00450325,-0.089525834,0.13974468,9.805245,0.005212914,-0.006665682,-0.9955557,0.09379373,-0.25793457,0.18084717,9.887894,0.03678894,0.008453369,-0.006027222
2023/5/9 22:18,6720,0.17988415,-0.020298257,-0.15838432,-0.088624015,0.14947028,9.80511,0.0052208,-0.007158522,-0.9954583,0.094785124,0.059906006,0.08866882,9.748428,-0.007949829,0.002059937,3.66E-04
2023/5/9 22:18,6760,-0.1622117,-0.15275492,0.20805073,-0.09937026,0.13485067,9.80522,0.005699296,-0.006361179,-0.9954057,0.095365636,-0.28486633,-0.022064209,10.12912,0.011230469,0.03189087,-0.002822876
2023/5/9 22:18,6800,-0.008468889,0.0861492,-0.27793312,-0.11351296,0.14690669,9.8048935,0.006483215,-0.006897399,-0.9952942,0.09643589,-0.1232605,0.25865173,9.631714,0.029342651,0.002059937,0.041915894
2023/5/9 22:18,6840,0.026597723,4.22E-04,0.024788857,-0.103009954,0.14869477,9.804981,0.00596751,-0.007032532,-0.9951786,0.097645104,-0.08554077,0.14552307,9.953735,-0.016464233,-0.013916016,0.004623413
2023/5/9 22:18,6880,-9.43E-04,0.09391953,0.062540054,-0.10148501,0.1491039,9.804991,0.005900193,-0.007054177,-0.99506706,0.09877718,-0.12924194,0.24668884,9.947754,0.020812988,0.008453369,0.022735596
2023/5/9 22:18,6920,-0.012223788,-0.0818077,-0.049850464,-0.10875892,0.15250857,9.804861,0.00629334,-0.007184265,-0.99496835,0.099733576,-0.14720154,0.084472656,9.87532,-0.037765503,0.026565552,-0.015609741
2023/5/9 22:18,6961,-0.061091803,-0.040653393,0.20979977,-0.11712261,0.13974304,9.8049555,0.006655319,-0.006491415,-0.9949308,0.100130945,-0.16934204,0.11380005,10.045319,0.021881104,0.011642456,-0.004959106
2023/5/9 22:18,7000,-0.0644337,-0.029075652,-0.20535469,-0.122723915,0.15259975,9.804694,0.00701102,-0.007109345,-0.9948416,0.100948215,-0.13043213,0.113204956,9.6813965,0.024017334,-0.005401611,0.038711548
2023/5/9 22:18,7040,0.073849685,-0.01820086,-0.1337862,-0.11491543,0.15004696,9.804829,0.006612275,-0.006935584,-0.9947328,0.10205326,-0.09870911,0.14492798,9.769989,-0.028182983,0.005264282,3.66E-04
2023/5/9 22:18,7081,-0.085032955,0.011722907,0.17878056,-0.1296868,0.13603869,9.804849,0.007289477,-0.006221066,-0.99467355,0.102629185,-0.21961975,0.16229248,10.11055,-0.022857666,0.030822754,0.005691528
2023/5/9 22:18,7120,0.0365742,0.08536291,-0.06698227,-0.13327707,0.14364594,9.804692,0.007515584,-0.006583375,-0.99460435,0.10325893,-0.09811401,0.20896912,9.809494,0.030410767,-0.02456665,0.007827759
2023/5/9 22:18,7160,-0.009368867,-0.019315764,-0.08926296,-0.123465106,0.15081596,9.804713,0.007059043,-0.006995306,-0.99455553,0.10373272,-0.13104248,0.12338257,9.792725,0.002700806,-0.025634766,0.013153076
2023/5/9 22:18,7200,0.0973648,-0.06988989,0.07666588,-0.11029805,0.1478414,9.804915,0.006375884,-0.006913743,-0.9945554,0.10378377,-0.016708374,0.074295044,9.99025,-0.010070801,-0.004333496,-0.022003174
2023/5/9 22:18,7240,0.016486712,0.017371535,0.19687271,-0.108929485,0.14927824,9.804909,0.006313142,-0.006994704,-0.99456924,0.10364963,-0.07476807,0.16407776,10.095001,0.043182373,0.007385254,-0.019866943
2023/5/9 22:18,7281,0.052494593,0.04577376,-0.04445076,-0.11314176,0.1708783,9.804508,0.006640205,-0.008068581,-0.9945691,0.103552125,-0.10470581,0.18682861,9.840012,0.029342651,0.014846802,-0.016677856
2023/5/9 22:18,7320,-1.00E-03,-0.049606785,-0.13958836,-0.11328659,0.1750618,9.804433,0.006666404,-0.008282612,-0.99460775,0.10316176,-0.1274414,0.12098694,9.792725,-0.005813599,-0.016052246,-0.019866943
2023/5/9 22:18,7360,-0.012914099,-0.08080095,0.005288124,-0.11487419,0.16156784,9.8046465,0.006753281,-0.007485563,-0.99461335,0.10316321,-0.18070984,0.06951904,9.896881,-0.026062012,0.025497437,-0.017745972
2023/5/9 22:18,7400,-0.040171586,-0.0675088,0.058787346,-0.12140858,0.1537715,9.804693,0.006919379,-0.007206588,-0.99462986,0.103012666,-0.16455078,0.08029175,9.9711,0.030410767,-0.029891968,0.002502441
2023/5/9 22:18,7440,0.103330314,0.09275997,-0.28946114,-0.10881799,0.1764834,9.804458,0.006445362,-0.008379661,-0.9946316,0.102938175,-0.002944946,0.2730255,9.576645,0.033599854,0.012710571,-0.018814087
2023/5/9 22:18,7481,-0.07150817,-0.01405032,0.19789314,-0.12728605,0.15647838,9.804575,0.007270531,-0.007274556,-0.99472564,0.10205447,-0.20884705,0.15629578,10.095001,-0.112335205,0.05319214,-0.051834106
2023/5/9 22:18,7520,-0.016610771,-0.03312853,0.2262125,-0.13395089,0.14540687,9.804657,0.007545399,-0.006684565,-0.99481225,0.10122731,-0.19268799,0.11740112,10.098587,0.08047485,-0.0320282,-0.011352539
2023/5/9 22:18,7560,0.017560512,0.024107993,-0.24724293,-0.11862109,0.1690487,9.804475,0.006887141,-0.007965327,-0.9948419,0.10089015,-0.103500366,0.20957947,9.671814,0.015487671,-0.019241333,-7.02E-04
2023/5/9 22:18,7600,-0.05151672,-0.008653432,-0.037399292,-0.11899461,0.167133,9.804503,0.006891464,-0.007870394,-0.99490345,0.10028784,-0.17712402,0.16049194,9.902267,-0.020721436,0.006317139,-0.027328491
2023/5/9 22:18,7640,-0.012830123,0.021532014,0.2143755,-0.12674052,0.16418529,9.804457,0.007264194,-0.007686135,-0.9949695,0.09961878,-0.15377808,0.1658783,10.114746,0.020812988,0.035079956,-0.029464722
2023/5/9 22:18,7681,-0.036623105,-0.009009123,-0.106944084,-0.14051451,0.17603703,9.804064,0.008018925,-0.008221817,-0.9950124,0.0990881,-0.15557861,0.19520569,9.823853,0.015487671,0.018035889,-0.00177002
2023/5/9 22:18,7720,-0.0900031,-0.045897707,0.00778389,-0.14366549,0.17965367,9.803952,0.008216544,-0.008404811,-0.99505085,0.098669425,-0.2256012,0.14552307,9.904053,0.012298584,-0.006454468,-0.01348877
2023/5/9 22:18,7760,0.06845352,0.00291118,0.013593674,-0.13997193,0.18381494,9.803928,0.007956229,-0.008693216,-0.9950962,0.09820727,-0.07118225,0.255661,9.922607,0.012298584,-0.018173218,-0.004959106
2023/5/9 22:18,7800,0.11350855,0.06473611,0.04354191,-0.13027015,0.19890061,9.803768,0.007601655,-0.009444243,-0.99514115,0.09770939,-0.019104004,0.26823425,9.945953,0.04425049,0.014846802,-0.018814087
2023/5/9 22:18,7840,-0.034377724,-0.06834763,-0.16111279,-0.13331032,0.21055017,9.803484,0.007811839,-0.01002204,-0.9951553,0.097491026,-0.1675415,0.13116455,9.7131195,0.001647949,0.011642456,-0.014541626
2023/5/9 22:18,7881,-0.09919752,-0.1176499,-0.05487156,-0.14980315,0.19753575,9.803516,0.008582462,-0.009281105,-0.9951732,0.09731615,-0.30282593,0.07609558,9.9262085,-0.030319214,0.016967773,-0.011352539
2023/5/9 22:18,7920,-0.08144526,0.011754483,0.12104607,-0.15690944,0.1884027,9.803584,0.008894108,-0.008786033,-0.99521524,0.09690351,-0.25613403,0.19760132,10.026169,0.020812988,-0.028839111,0.014221191
2023/5/9 22:18,7960,0.056089237,0.06265557,-0.13693047,-0.1455379,0.2044025,9.80344,0.008395087,-0.009655126,-0.99522173,0.09679889,-0.0879364,0.263443,9.780762,0.021881104,-0.003265381,0.022735596
2023/5/9 22:18,8000,0.004235089,0.027690366,-0.13863373,-0.14918874,0.20282856,9.803418,0.008571689,-0.009558052,-0.99523044,0.09670359,-0.1459961,0.22813416,9.826843,-0.037765503,0.023361206,0.007827759
2023/5/9 22:18,8040,-0.12237781,0.024356514,0.17875099,-0.16986917,0.18409325,9.80345,0.009525839,-0.008508597,-0.99526536,0.096351944,-0.28067017,0.21975708,10.124329,-0.042037964,0.04147339,3.66E-04
2023/5/9 22:18,8081,0.07717958,0.05442673,0.07749176,-0.17255776,0.18462195,9.803393,0.009665863,-0.008521142,-0.9952531,0.09646382,-0.091537476,0.23052979,10.004013,0.028274536,-0.03842163,0.026992798
2023/5/9 22:18,8120,0.040025607,-0.023638457,-0.17452145,-0.15745462,0.19350374,9.803476,0.008917828,-0.009055567,-0.99526155,0.096399546,-0.12265015,0.1586914,9.707733,0.004837036,-0.007522583,0.007827759
2023/5/9 22:18,8161,0.025277495,-0.013305157,0.024847984,-0.16375023,0.17840381,9.803659,0.009185547,-0.008251795,-0.99529094,0.09614312,-0.14839172,0.17425537,9.936981,-0.048431396,0.021240234,0.005691528
2023/5/9 22:18,8201,-0.04812883,0.049327135,0.14071369,-0.17144741,0.1733719,9.803618,0.009549108,-0.007961603,-0.99531925,0.09583827,-0.23338318,0.22813416,10.040527,0.026138306,0.003128052,0.003570557
2023/5/9 22:18,8240,0.006490514,0.05763805,-0.059412003,-0.17310856,0.18738188,9.803331,0.009702441,-0.008664085,-0.9953067,0.09589292,-0.14480591,0.22813416,9.845398,-0.011138916,0.03189087,0.009948731
2023/5/9 22:18,8280,0.01568386,-0.011896804,0.19082737,-0.17707102,0.18559437,9.803294,0.009892754,-0.008556386,-0.9953289,0.09565186,-0.12924194,0.15031433,10.094391,0.029342651,-0.0320282,0.004623413
2023/5/9 22:18,8320,0.06795588,-0.04643348,-0.15702343,-0.1654027,0.20343204,9.803144,0.009382593,-0.009523605,-0.99537486,0.09513263,-0.09811401,0.17546082,9.758606,0.039993286,0.015914917,-0.00177002
2023/5/9 22:18,8361,-0.005202517,0.00926353,-0.18944645,-0.16456749,0.21372086,9.802939,0.009384924,-0.010054851,-0.9954191,0.094613545,-0.13043213,0.22932434,9.668823,0.005905151,-0.020309448,-0.00177002
2023/5/9 22:18,8400,-0.10173863,-0.039821282,0.12648201,-0.16063619,0.2028682,9.803235,0.009181871,-0.009419384,-0.9954646,0.094218835,-0.2603302,0.17425537,10.011795,-0.03883362,0.0105896,0.003570557
2023/5/9 22:18,8441,-0.04913889,0.028059244,0.04028511,-0.16158018,0.2044977,9.803186,0.009184212,-0.009605334,-0.9954696,0.0941465,-0.18070984,0.25746155,9.922012,0.035736084,-0.019241333,0.009948731
2023/5/9 22:18,8480,-0.007232845,0.009920806,0.06252289,-0.15320718,0.21502917,9.803095,0.008808121,-0.010181584,-0.9954824,0.093986996,-0.17292786,0.2059784,9.986664,0.026138306,-0.009658814,3.66E-04
2023/5/9 22:18,8520,0.11090806,0.011355594,-0.13528252,-0.14708103,0.22556268,9.802952,0.00854883,-0.010744774,-0.9954684,0.09409636,-0.020309448,0.25386047,9.786148,0.017623901,-0.007522583,0.016342163
2023/5/9 22:18,8560,-0.09253861,-0.013976038,-0.19531822,-0.15741178,0.22159539,9.802882,0.009047745,-0.010499426,-0.9955247,0.093479946,-0.24954224,0.21975708,9.709534,-0.053756714,0.054260254,-0.024139404
2023/5/9 22:18,8601,-0.025562733,-0.008322388,0.37270546,-0.17378217,0.2021225,9.803027,0.009783399,-0.009435421,-0.9955537,0.09320995,-0.1633606,0.23890686,10.275162,0.003768921,-0.014984131,0.016342163
2023/5/9 22:18,8640,0.055193067,-0.05596605,-0.07145786,-0.15640277,0.2123704,9.8031025,0.008946505,-0.010041189,-0.99558586,0.09288665,-0.093322754,0.1539154,9.819656,0.03892517,-0.039489746,0.009948731
2023/5/9 22:18,8680,0.06261864,0.012942851,-0.14438152,-0.14498758,0.21345517,9.803255,0.008369418,-0.010152475,-0.9956139,0.0926276,-0.08314514,0.25985718,9.812485,-0.023925781,0.0105896,-0.00177002
2023/5/9 22:18,8720,-0.1586538,-5.17E-04,0.09948826,-0.15878718,0.20511144,9.803219,0.009028553,-0.009665627,-0.9956329,0.09241318,-0.30940247,0.21914673,10.035141,0.001647949,0.011642456,0.013153076
2023/5/9 22:18,8760,-0.055358276,0.09852706,0.002114296,-0.16318442,0.21213488,9.802998,0.009314535,-0.010071706,-0.9956431,0.09223146,-0.22740173,0.34902954,9.91124,0.004837036,0.005264282,-0.003890991
2023/5/9 22:18,8801,0.048865065,6.19E-05,0.053646088,-0.16711025,0.21685357,9.802828,0.009502847,-0.010226131,-0.9956565,0.09205042,-0.13163757,0.19819641,9.956131,-0.011138916,0.011642456,-0.008148193
2023/5/9 22:18,8840,-0.008248255,-0.08180274,0.05714321,-0.16324104,0.2139775,9.802957,0.009261658,-0.010124498,-0.9957191,0.09140686,-0.1920929,0.13475037,9.942963,0.021881104,-0.017120361,-0.012420654
2023/5/9 22:18,8880,0.07946578,0.014943957,-0.16884899,-0.15646957,0.2257556,9.802803,0.008993343,-0.010737324,-0.9957499,0.09102759,-0.07357788,0.24069214,9.740051,0.037857056,-7.63E-05,-0.002822876
2023/5/9 22:18,8920,-0.03852062,-0.036303595,-0.01853466,-0.15831572,0.22248039,9.802848,0.009067696,-0.010566019,-0.99578696,0.09063377,-0.1962738,0.18383789,9.880112,-0.03564453,0.015914917,-0.022003174
2023/5/9 22:18,8960,-0.13274808,-7.84E-04,0.119672775,-0.1704337,0.21386306,9.802835,0.00964093,-0.010074622,-0.99580735,0.09040615,-0.3327484,0.24967957,9.981873,0.002700806,0.003128052,0.001434326
2023/5/9 22:18,9001,0.02810423,0.06572048,0.08083439,-0.1710516,0.22434245,9.802591,0.009716664,-0.010607684,-0.9958353,0.09002841,-0.13761902,0.2736206,9.986053,0.031463623,-0.02456665,0.009948731
2023/5/9 22:18,9040,-0.019674897,-0.024467096,-0.1626997,-0.15876712,0.23841639,9.802465,0.009153278,-0.011382211,-0.9958651,0.089662604,-0.17771912,0.2233429,9.692169,0.017623901,-0.020309448,-0.002822876
2023/5/9 22:18,9080,0.08683345,-0.024197415,0.09697437,-0.15255961,0.2376257,9.802584,0.008829812,-0.011373953,-0.995904,0.08926271,-0.07417297,0.2347107,10.014191,0.008041382,0.007385254,-0.011352539
2023/5/9 22:18,9120,-0.023022592,-0.043097556,-0.18541336,-0.15733682,0.23805489,9.802498,0.009067474,-0.011379558,-0.99595606,0.088655524,-0.16215515,0.20298767,9.741257,-0.029251099,0.027633667,-0.020935059
2023/5/9 22:18,9160,-0.11249402,0.0348821,0.15381241,-0.16824111,0.2238711,9.80265,0.009552549,-0.010613954,-0.99599826,0.08822464,-0.23399353,0.23291016,10.059082,-4.88E-04,-0.014984131,-0.00177002
2023/5/9 22:18,9200,0.0800204,0.0652471,0.12615013,-0.15398544,0.23392321,9.80265,0.008876349,-0.011186557,-0.9959773,0.088460624,-0.062194824,0.3101349,10.011795,0.03466797,-0.041610718,0.034454346
2023/5/9 22:18,9241,-0.011812434,-0.010496825,-0.18690014,-0.14458849,0.25204742,9.802344,0.008484821,-0.01214685,-0.99594086,0.08878177,-0.16874695,0.2275238,9.717316,0.021881104,0.0105896,-0.002822876
2023/5/9 22:18,9280,-0.026974171,-0.031721458,-0.11294651,-0.1549307,0.24638313,9.80233,0.008983257,-0.011813254,-0.99594957,0.08868036,-0.2034607,0.21795654,9.769989,-0.030319214,0.015914917,-0.004959106
2023/5/9 22:18,9320,-0.029334396,-0.02128601,0.15115166,-0.15427846,0.23711467,9.802569,0.008906974,-0.011346315,-0.9959649,0.08857685,-0.18789673,0.21496582,10.036942,0.008041382,-0.017120361,-0.003890991
2023/5/9 22:18,9360,-0.025067762,-0.027748138,0.003869057,-0.15541616,0.24360183,9.802393,0.00899534,-0.01166976,-0.995951,0.0886822,-0.20166016,0.2167511,9.89328,0.030410767,0.016967773,0.007827759
2023/5/9 22:18,9401,0.06879787,0.04514721,-0.2920103,-0.1507328,0.25642824,9.802137,0.008818333,-0.012340483,-0.9959244,0.08890731,-0.07836914,0.29637146,9.671814,0.018692017,-0.0362854,0.015274048
2023/5/9 22:18,9440,0.06588663,0.051328182,-0.033416748,-0.14001265,0.25327292,9.80238,0.008258496,-0.012229433,-0.9959378,0.08882597,-0.079559326,0.27841187,9.949554,-0.05055237,0.018035889,-0.019866943
2023/5/9 22:18,9480,-0.074240476,0.010526001,0.18078518,-0.1465802,0.24354325,9.802529,0.008590584,-0.011759937,-0.99596506,0.08855242,-0.23817444,0.25386047,10.087814,0.024017334,0.003128052,-0.003890991
2023/5/9 22:18,9520,-0.13763668,-0.014658362,-0.10847664,-0.1530989,0.25389004,9.802167,0.008971026,-0.012221717,-0.9959414,0.088718146,-0.2758789,0.21914673,9.761002,0.012298584,-0.002197266,0.003570557
2023/5/9 22:18,9560,-0.025216177,0.06628072,-0.07395172,-0.15397516,0.2583655,9.802037,0.008992929,-0.012423402,-0.99591386,0.088996135,-0.17951965,0.3250885,9.834625,0.011230469,-0.016052246,0.017410278
2023/5/9 22:18,9601,-0.040892825,0.010942698,0.12621593,-0.1505717,0.26065323,9.80203,0.008831291,-0.012554454,-0.9959077,0.08906258,-0.20944214,0.2670288,10.030945,-4.88E-04,-0.005401611,-0.003890991
2023/5/9 22:18,9640,0.03470248,-0.021816134,-0.012569428,-0.1453566,0.26867047,9.801891,0.008603481,-0.012984968,-0.99590003,0.089109436,-0.08375549,0.24967957,9.886108,0.0410614,-0.005401611,-7.02E-04
2023/5/9 22:18,9680,-0.06561151,-0.020947367,-0.14973164,-0.15255132,0.27607748,9.801577,0.009000658,-0.013329904,-0.99590516,0.08896158,-0.2028656,0.26524353,9.777756,-0.017532349,0.03401184,-0.016677856
2023/5/9 22:18,9720,-0.07054122,-0.02247575,0.07741642,-0.16212046,0.26917273,9.801615,0.009455658,-0.012935552,-0.99590397,0.08898605,-0.1968689,0.3065338,9.994446,0.021881104,-0.022445679,0.014221191
2023/5/9 22:18,9761,0.15206128,0.018769145,0.002245903,-0.14548893,0.2796447,9.801582,0.008653708,-0.013545957,-0.9959344,0.08863562,6.41E-04,0.25924683,9.906448,0.010162354,-0.019241333,0.001434326
2023/5/9 22:18,9800,0.0738211,-0.040514022,-0.11032486,-0.14032748,0.28233594,9.80158,0.008424088,-0.013741533,-0.99594045,0.08855962,-0.067596436,0.29936218,9.75502,0.013366699,0.019104004,-0.006027222
2023/5/9 22:18,9840,-0.07004546,0.022740781,-0.050127983,-0.15240492,0.2783514,9.801515,0.009067961,-0.013346912,-0.9959531,0.08841407,-0.232193,0.30413818,9.862762,-0.04310608,0.016967773,-0.01348877
2023/5/9 22:18,9880,-0.04483342,0.01553005,0.30108452,-0.16030021,0.27241772,9.801556,0.009368891,-0.013115119,-0.9959637,0.08829808,-0.20465088,0.29875183,10.208725,0.022949219,-0.005401611,-0.00177002
2023/5/9 22:18,9920,0.03730811,0.020239472,-0.2431364,-0.16074702,0.2873284,9.801122,0.009455791,-0.013872698,-0.99597204,0.088078484,-0.13342285,0.29936218,9.613754,0.02508545,0.006317139,-0.009216309
2023/5/9 22:18,9960,0.11912617,0.008516878,-0.11686516,-0.15310615,0.28130102,9.801419,0.009033583,-0.013605374,-0.9960244,0.087570466,-0.03526306,0.26823425,9.785538,-0.051620483,-0.00112915,-0.014541626
2023/5/9 22:18,10001,0.007920682,-0.04377833,0.19490719,-0.15039633,0.26522148,9.801909,0.008815887,-0.012806125,-0.99609226,0.08693955,-0.16514587,0.2275238,10.055496,0.004837036,0.008453369,-0.026260376
2023/5/9 22:18,10040,0.01067245,0.09573841,-0.023716927,-0.15431227,0.26783854,9.801777,0.009020682,-0.012925776,-0.9961276,0.08649491,-0.14898682,0.37776184,9.846603,-0.012207031,-0.002197266,-0.011352539
2023/5/9 22:18,10080,-0.039622054,0.038109094,0.03454113,-0.15722768,0.26764712,9.801737,0.00916577,-0.012904754,-0.99614114,0.08632638,-0.2250061,0.28199768,9.910645,-0.014343262,0.004196167,-0.014541626
2023/5/9 22:18,10120,-0.034166515,-0.007028759,0.17981148,-0.15597896,0.26558506,9.801812,0.009090266,-0.012807581,-0.9961631,0.086095415,-0.2034607,0.23591614,10.115952,0.020812988,-0.023498535,-0.016677856
2023/5/9 22:18,10161,-0.002971873,0.06330073,-0.17922974,-0.15040514,0.28213543,9.801436,0.00886349,-0.013782578,-0.99616325,0.085966736,-0.12565613,0.34425354,9.668228,0.028274536,-0.006454468,0.009948731
2023/5/9 22:18,10200,0.07098946,0.031868756,-0.065029144,-0.14199974,0.28599024,9.801451,0.008374068,-0.013884908,-0.9961881,0.08571075,-0.067596436,0.30593872,9.85437,-0.013275147,-0.025634766,-0.007095337
2023/5/9 22:18,10240,0.0723663,0.006443977,0.058707237,-0.13802934,0.27976903,9.801687,0.008232774,-0.013611805,-0.99620974,0.08551642,-0.053222656,0.31552124,9.984268,-0.022857666,0.024429321,-0.011352539
2023/5/9 22:18,10280,0.11571674,-0.030874878,0.44995594,-0.13918321,0.27259237,9.801872,0.008259199,-0.013242635,-0.99622005,0.08545202,-0.017913818,0.2454834,10.378708,0.005905151,0.013778687,-0.009216309
2023/5/9 22:18,10320,0.7750195,0.14573067,-0.28074837,-0.09652753,0.28509596,9.802031,0.00614331,-0.014065119,-0.99624354,0.08522491,0.7512207,0.44300842,9.665237,0.07194519,-0.18756104,0.005691528
2023/5/9 22:18,10361,0.20796177,-0.3308661,0.6873064,-0.10927386,0.25296322,9.802778,0.00662044,-0.012393378,-0.9964706,0.08275854,0.025787354,-0.102264404,10.591187,-0.11553955,0.15013123,-0.10296631
2023/5/9 22:18,10400,0.85956794,-0.21664837,-0.32749367,-0.07033293,0.28348178,9.8023,0.004758647,-0.014112716,-0.99652743,0.08192197,0.8948822,0.176651,9.514404,0.17315674,-0.06825256,0.03126526
2023/5/9 22:18,10440,0.3314828,0.34626284,0.11738205,-0.11452763,0.30572602,9.801214,0.007092326,-0.015061508,-0.99652934,0.081560664,0.09701538,0.66986084,10.162033,0.082595825,0.16078186,0.015274048
2023/5/9 22:18,10480,0.31588072,0.7554312,-0.52388096,-0.13519934,0.38435063,9.798183,0.008550497,-0.019443527,-0.9963176,0.083066694,0.22091675,1.2295074,9.3497925,0.1667633,0.018035889,0.10902405
2023/5/9 22:18,10521,0.111895084,0.27492443,0.48312473,-0.14570905,0.4316805,9.796061,0.009439537,-0.021549024,-0.996186,0.08402385,-0.001144409,0.72972107,10.380508,0.098587036,0.07130432,0.006759644
2023/5/9 22:18,10560,-0.43405703,-0.21627563,0.003911972,-0.18753248,0.5018518,9.792006,0.01208179,-0.025300123,-0.99602985,0.084489584,-0.6469879,0.29756165,9.781357,0.26156616,0.12776184,0.061080933
2023/5/9 22:18,10600,-0.1526976,-0.42807734,-0.38329315,-0.23262553,0.57777846,9.786851,0.014331016,-0.028356979,-0.9958715,0.08503196,-0.37583923,0.14852905,9.548523,0.039993286,0.04786682,0.018478394
2023/5/9 22:18,10640,0.37456438,-0.3771577,0.65783787,-0.23780814,0.5869656,9.78618,0.014633806,-0.028802313,-0.99585664,0.08500472,0.16464233,0.23291016,10.556473,0.13267517,-0.010726929,0.04510498
2023/5/9 22:18,10680,0.609842,0.02686131,-0.4646635,-0.22071,0.66355896,9.781686,0.014114366,-0.03276655,-0.9957016,0.08547191,0.39509583,0.70578,9.403076,0.17634583,-0.053329468,0.032318115
2023/5/9 22:18,10721,0.359581,0.05825156,-0.5014515,-0.19562276,0.7168802,9.778457,0.013042602,-0.03560045,-0.9956919,0.08461771,0.14608765,0.7823944,9.351593,0.08792114,-0.014984131,-0.10296631
2023/5/9 22:18,10760,-0.14203493,-0.116230905,-0.78278923,-0.21821539,0.72300285,9.777526,0.014113328,-0.035856336,-0.9959112,0.08170746,-0.3806305,0.59742737,9.068481,-0.065475464,0.09793091,-0.2084198
2023/5/9 22:18,10800,-0.3687387,-0.16551435,-0.117572784,-0.27296376,0.67560434,9.779542,0.016569411,-0.033280604,-0.99627286,0.07783443,-0.6164551,0.53518677,9.729874,-0.13258362,0.17037964,-0.1999054
2023/5/9 22:18,10840,-0.72528136,-0.017410874,0.2300129,-0.34836635,0.6237937,9.780589,0.020098563,-0.030410968,-0.99654996,0.074561365,-1.0845337,0.61538696,10.136887,-0.08251953,0.089416504,-0.11361694
2023/5/9 22:18,10880,-0.2542071,0.37382305,-0.21959877,-0.35280547,0.6144903,9.781018,0.020123173,-0.02990663,-0.9966775,0.073038094,-0.5422363,1.0307922,9.617355,-0.026062012,-0.054397583,-0.031585693
2023/5/9 22:18,10920,-0.36000395,0.64419794,0.20251656,-0.35386503,0.5702908,9.783657,0.020080604,-0.027732968,-0.9968714,0.07123959,-0.74993896,1.215744,10.096191,-0.17092896,0.060653687,-0.11468506
2023/5/9 22:18,10961,-1.2229216,0.53804266,0.027700424,-0.3980377,0.5371421,9.783834,0.022165908,-0.02592124,-0.99698967,0.06963032,-1.6238251,1.0888519,9.891495,-0.011138916,0.105392456,-0.011352539
2023/5/9 22:18,11000,-0.69267154,0.9923399,-0.51561356,-0.4475141,0.54822356,9.781082,0.02474074,-0.026296346,-0.9968777,0.07022355,-1.0887146,1.5461426,9.350998,-0.028182983,0.11604309,0.11328125
2023/5/9 22:18,11040,0.20959246,0.87335384,0.12131977,-0.48580262,0.5062054,9.78152,0.026556082,-0.024000855,-0.9968369,0.07095753,-0.28486633,1.3725586,10.027954,-0.21673584,0.070236206,0.02166748
2023/5/9 22:18,11080,0.1435529,0.40929788,0.63971233,-0.49980298,0.4625462,9.782976,0.027096756,-0.02174329,-0.99691504,0.07038042,-0.37165833,0.93621826,10.42659,0.011230469,0.040405273,-0.009216309
2023/5/9 22:18,11120,0.32834464,0.6354984,-0.21795654,-0.49957767,0.49658346,9.78132,0.02718658,-0.023502886,-0.99693877,0.0694376,-0.16455078,1.2187347,9.650864,0.1156311,-0.040542603,-0.024139404
2023/5/9 22:18,11161,0.25510073,0.90592885,-0.8710604,-0.4845815,0.5378796,9.779889,0.026520135,-0.025711037,-0.9970372,0.0674721,-0.28785706,1.4617462,8.952362,0.028274536,-0.03842163,-0.1338501
2023/5/9 22:18,11200,-0.10971132,0.89491314,-0.952837,-0.48293227,0.5323668,9.780273,0.02632911,-0.025526738,-0.99727356,0.06403608,-0.5943146,1.4389954,8.889511,-0.102752686,0.05744934,-0.26914978
2023/5/9 22:18,11240,-0.53410155,1.1914124,-0.28298473,-0.5357816,0.46254155,9.781073,0.028663704,-0.021965563,-0.9976498,0.05823103,-1.0893097,1.662857,9.597,-0.21354675,0.09686279,-0.29577637
2023/5/9 22:18,11280,-0.4388219,1.186384,-0.044908524,-0.5660669,0.42949682,9.780874,0.030022118,-0.02032023,-0.99788296,0.053994562,-1.0210876,1.6245422,9.808884,5.80E-04,0.0382843,-0.21269226
2023/5/9 22:18,11321,-0.4979322,1.3276153,-0.8843279,-0.58458096,0.44900754,9.778908,0.03094451,-0.021374892,-0.99801934,0.050427616,-1.0905151,1.7831573,8.957153,0.003768921,0.023361206,-0.21374512
2023/5/9 22:18,11360,-0.62201184,1.355588,-0.57506466,-0.5975171,0.44231054,9.778432,0.031516936,-0.021105338,-0.9981691,0.0471132,-1.220398,1.8112946,9.317474,-0.05908203,-0.028839111,-0.16368103
2023/5/9 22:18,11400,-0.49066132,1.3809218,0.14588928,-0.5981779,0.42526975,9.779147,0.031453695,-0.020320814,-0.99831223,0.04438921,-1.1084747,1.8112946,9.995636,-0.069732666,-0.011795044,-0.20629883
2023/5/9 22:18,11440,-0.95576745,0.86002314,-0.009767532,-0.58431613,0.42768195,9.779881,0.030675564,-0.020589191,-0.9984893,0.04067154,-1.5478058,1.239685,9.81488,0.051712036,-0.13536072,-0.17860413
2023/5/9 22:18,11480,-0.5910266,0.9063371,0.35519695,-0.5411982,0.44229612,9.781711,0.028454691,-0.021491496,-0.9986313,0.038262423,-1.0677643,1.3540039,10.346985,0.033599854,-0.14601135,-0.06781006
2023/5/9 22:18,11520,-0.986763,1.1062127,0.52358437,-0.47774017,0.5344774,9.780413,0.025388038,-0.02632778,-0.99861616,0.037790257,-1.5472107,1.6981659,10.284134,0.34999084,-0.20672607,-0.004959106
2023/5/9 22:18,11560,-0.9461717,1.6482124,-0.38587952,-0.43491313,0.6252133,9.777031,0.02343395,-0.03099965,-0.9984648,0.03947058,-1.2730713,2.2883453,9.6772,-0.16879272,-0.03416443,-0.01348877
2023/5/9 22:18,11601,-0.6351304,0.89228916,3.492406,-0.45978943,0.46221974,9.784955,0.024701638,-0.021135282,-0.99868876,0.03954588,-1.1449738,1.2827759,13.482788,-0.6013031,0.14587402,-0.16688538
2023/5/9 22:18,11640,-1.313972,-0.11406857,3.5478144,-0.52943027,0.33837795,9.7865,0.027629709,-0.016246475,-0.99879676,0.037117615,-1.8662262,0.1832428,13.449265,0.122024536,0.024429321,-0.11894226
2023/5/9 22:18,11680,-0.89926213,-1.7150358,1.1507797,-0.541067,0.49865508,9.779007,0.028551186,-0.024377061,-0.9985762,0.037896134,-1.3927765,-1.2107849,11.018555,0.6983185,0.014846802,0.18678284
2023/5/9 22:18,11720,0.39488322,-1.9304464,-1.7720337,-0.5500963,0.7883899,9.759418,0.029760277,-0.039019737,-0.99789894,0.042302832,-0.21304321,-1.1329803,8.076675,0.7185669,0.014846802,0.25816345
2023/5/9 22:18,11760,0.925115,-1.7730154,-2.0566645,-0.5567382,1.0050882,9.739108,0.03087943,-0.049901348,-0.99711305,0.04818579,0.3927002,-0.7516937,7.791168,0.5097809,0.065979004,0.36042786
2023/5/9 22:18,11801,1.0317149,-1.4145836,-2.5069923,-0.5060002,1.1252042,9.728735,0.02903222,-0.05594412,-0.99644214,0.055950433,0.45973206,-0.2973938,7.489502,-0.060150146,-0.22058105,0.33059692
2023/5/9 22:18,11840,0.82620096,-1.0979908,0.3982916,-0.42816395,0.97544134,9.748619,0.02479154,-0.046923246,-0.9964916,0.06471494,0.3358307,-0.06576538,10.448746,-0.55229187,-0.020309448,0.33380127
2023/5/9 22:18,11880,0.65639985,-0.3949743,1.4581032,-0.39686295,0.8093477,9.765135,0.023099734,-0.039788608,-0.9964872,0.06997507,0.23228455,0.42326355,11.418991,-0.13365173,-0.17903137,0.21342468
2023/5/9 22:18,11920,0.24096194,0.012317956,0.058476448,-0.30804247,0.8517571,9.764733,0.01864705,-0.04287503,-0.9961464,0.074204884,-0.09213257,0.97273254,9.598801,0.25730896,-0.09913635,0.14950562
2023/5/9 22:18,11960,0.41105124,0.06130719,-1.5481443,-0.3050014,0.90893984,9.759672,0.019152949,-0.045037806,-0.9957381,0.07816937,0.10479736,0.9781189,8.31012,-0.05480957,0.11604309,0.18998718
2023/5/9 22:18,12001,1.0206735,0.033394873,-1.6227312,-0.31854138,0.8577052,9.763876,0.019795971,-0.042296935,-0.995541,0.08195893,0.73147583,0.8931122,8.234695,-0.22631836,-0.025634766,0.11967468
2023/5/9 22:18,12040,1.1705351,0.14985931,-0.6478729,-0.27044564,0.71406966,9.776878,0.016784638,-0.035159834,-0.9957722,0.08318542,0.9750824,0.8733673,9.283356,-0.44044495,-0.15559387,-0.04650879
2023/5/9 22:18,12080,0.45880836,0.16771561,-0.20849133,-0.20748866,0.60678715,9.78566,0.013056337,-0.029995387,-0.9961828,0.080929816,0.2556305,0.8135071,9.634705,-0.0995636,-0.072509766,-0.07527161
2023/5/9 22:18,12120,0.1137791,0.79583734,-1.0641928,-0.20206164,0.5631009,9.788385,0.012544461,-0.0278193,-0.99640906,0.07897895,-0.117874146,1.3276672,8.812897,-0.25082397,0.07130432,-0.068878174
2023/5/9 22:18,12160,-0.070566416,1.0975945,0.14717197,-0.24048965,0.4583105,9.792982,0.014015137,-0.022370508,-0.9967323,0.07634069,-0.38781738,1.53656,10.141083,-0.25402832,0.11604309,-0.09124756
2023/5/9 22:18,12200,-0.43832242,0.99069625,0.45942974,-0.30015314,0.41683608,9.793189,0.016816644,-0.020088516,-0.9970016,0.07281131,-0.70744324,1.4144592,10.28833,0.07727051,0.070236206,0.06640625
2023/5/9 22:18,12241,0.37133285,0.9951064,-0.34973335,-0.31714,0.5056555,9.788469,0.01794708,-0.024594553,-0.9970729,0.07013367,0.05870056,1.5760651,9.338425,0.30844116,0.10752869,0.08984375
2023/5/9 22:18,12280,-0.069633365,0.837104,-1.2349567,-0.38630483,0.601892,9.780536,0.022347067,-0.029444098,-0.99698764,0.06818591,-0.4530487,1.3737488,8.701569,0.06555176,0.23323059,-0.002822876
2023/5/9 22:18,12320,0.040795714,0.9411392,0.57213116,-0.4706356,0.5861714,9.777796,0.026431082,-0.027949989,-0.9969982,0.06719236,-0.42433167,1.5826416,10.577423,-0.12619019,0.20446777,0.125
2023/5/9 22:18,12360,0.36461252,1.4402049,1.4514837,-0.5257397,0.59785825,9.774281,0.028825335,-0.028627187,-0.99689597,0.06743922,-0.15138245,2.061493,11.318436,0.11456299,0.046798706,0.30929565
2023/5/9 22:18,12400,0.5189887,1.4980326,2.7784662,-0.4489666,0.697221,9.771525,0.025404997,-0.033844862,-0.9965297,0.071677335,0.05091858,2.1835938,12.647217,0.276474,-0.23123169,0.38705444
2023/5/9 22:18,12441,-0.020310044,0.17859995,1.8158484,-0.38783,0.802433,9.766068,0.022844456,-0.039335288,-0.9960857,0.07578975,-0.477005,0.82188416,11.548279,0.09005737,0.027633667,0.17933655
2023/5/9 22:18,12480,-0.63417065,-1.9813278,2.3832798,-0.43374982,0.7391458,9.769131,0.02498728,-0.035897117,-0.99605095,0.07726297,-1.0192871,-1.2808228,12.344345,-0.22738647,0.19593811,0.20915222
2023/5/9 22:18,12520,-0.25427788,-2.3214817,0.6509361,-0.531991,0.78089935,9.7610235,0.030266812,-0.037553426,-0.9956148,0.08015499,-0.6356201,-1.5280151,10.160843,0.5736847,0.26837158,0.24005127
2023/5/9 22:18,12560,0.632044,-1.8440385,-2.313839,-0.5969304,1.0143518,9.735766,0.034695484,-0.04909458,-0.9947298,0.08305712,0.11735535,-0.71040344,7.320709,0.592865,0.10752869,0.12181091
2023/5/9 22:18,12600,0.8668206,-1.591285,-2.7880116,-0.6057644,1.1082404,9.724981,0.035610314,-0.053264048,-0.9945956,0.0816977,0.09580994,-0.50749207,7.2788086,-0.23698425,0.07130432,-0.21694946
2023/5/9 22:18,12640,-0.2810971,-1.9060075,0.9832096,-0.71312124,0.8497786,9.743701,0.039559346,-0.04055292,-0.9956011,0.07462503,-1.039032,-1.0623474,10.847366,-0.65348816,0.38342285,-0.43959045
2023/5/9 22:18,12681,-1.2864316,-1.3638275,0.7468958,-0.83321905,0.708359,9.745479,0.044949885,-0.033141658,-0.99604595,0.069091305,-2.0912933,-0.5966797,10.518768,0.05596924,0.09580994,0.03765869
2023/5/9 22:18,12720,0.4051404,-0.15039492,-1.1439285,-0.7812051,0.7999316,9.742701,0.04276157,-0.037841342,-0.99572325,0.0726273,-0.3698578,0.6764374,8.637527,0.23387146,-0.22697449,0.29118347
2023/5/9 22:18,12760,0.302826,0.0632571,-1.4268427,-0.69850403,0.8366752,9.745894,0.038840923,-0.039863188,-0.9955089,0.0765792,-0.37704468,0.9032898,8.407684,-0.11553955,-0.14068604,0.15589905
2023/5/9 22:18,12800,0.6529613,0.24038774,-0.52093124,-0.6137365,0.7681442,9.757237,0.034306757,-0.036639158,-0.99567074,0.07823278,0.05331421,1.0110321,9.374939,-0.21673584,-0.23762512,-0.05076599
2023/5/9 22:18,12840,-0.13370079,0.09671384,0.037649155,-0.5682605,0.67953163,9.76656,0.03153276,-0.032398902,-0.99613976,0.07524367,-0.742157,0.7219391,9.960922,-0.22099304,0.024429321,-0.2829895
2023/5/9 22:18,12880,-0.3030851,-0.008722246,-0.16751862,-0.6044589,0.614937,9.768668,0.032980863,-0.029134644,-0.9965542,0.07030769,-0.9199219,0.5992279,9.63591,-0.061203003,0.0617218,-0.26487732
2023/5/9 22:18,12921,-0.050896823,0.25735533,-0.23814106,-0.62113595,0.60408974,9.768297,0.033675242,-0.028659647,-0.9968218,0.06626369,-0.6074829,0.85661316,9.613754,0.028274536,-0.003265381,-0.20202637
2023/5/9 22:18,12960,-0.19691807,0.37697858,-0.70723534,-0.615475,0.6338163,9.766773,0.033253197,-0.03052946,-0.9969194,0.06413975,-0.76789856,1.0469513,9.137909,0.094314575,-0.09062195,-0.06674194
2023/5/9 22:18,13000,-0.46195084,0.41271794,-1.0289383,-0.5662745,0.6622664,9.767861,0.030977285,-0.03190713,-0.9970168,0.0630864,-1.023468,1.0708923,8.80632,0.009094238,-0.12364197,-0.1253357
2023/5/9 22:18,13040,-0.61924183,0.74481726,-0.7497425,-0.5588515,0.64565235,9.769402,0.030509287,-0.031118115,-0.9971267,0.061961636,-1.1641388,1.4294128,9.112183,-0.08357239,0.030822754,-0.1253357
2023/5/9 22:18,13081,-0.13173509,1.3657591,-0.22321129,-0.58615494,0.59659386,9.770921,0.03173063,-0.02854606,-0.9971932,0.061514147,-0.7164154,1.9729004,9.643692,-0.23059082,0.025497437,-0.14663696
2023/5/9 22:18,13120,-0.5448096,1.2884861,1.0296621,-0.5803131,0.526948,9.775272,0.03117751,-0.025055636,-0.9973849,0.060195833,-1.1371918,1.8244629,10.888672,-0.11766052,-0.05758667,-0.16900635
2023/5/9 22:18,13160,-0.83480746,1.2821614,0.9426708,-0.58773655,0.5035547,9.776061,0.031457014,-0.023875196,-0.99747014,0.059107706,-1.4191132,1.7693939,10.790512,-0.09423828,0.06916809,-0.115753174
2023/5/9 22:18,13200,-0.17866218,1.4079843,1.6118689,-0.6212902,0.5108921,9.773605,0.0331833,-0.024158845,-0.9974248,0.05881325,-0.7415619,1.919632,11.380081,0.1742096,0.02017212,-0.06781006
2023/5/9 22:18,13240,0.4682623,0.3910333,0.3636217,-0.58395034,0.57837796,9.772148,0.03146814,-0.02772901,-0.9974234,0.058201835,-0.05860901,0.8733673,10.266785,0.002700806,-0.20033264,-0.15409851
2023/5/9 22:18,13281,0.45664322,-0.51890457,2.177247,-0.5187089,0.52121913,9.779042,0.027643329,-0.02463965,-0.99781454,0.054725528,-0.16934204,-0.04121399,12.18573,-0.15281677,-0.09062195,-0.33944702
2023/5/9 22:18,13320,-0.48861516,-1.4910417,1.5967083,-0.5103599,0.4974528,9.780719,0.027414618,-0.02435053,-0.9980777,0.04996374,-1.0192871,-1.0785065,11.289703,0.18806458,0.03401184,-0.20309448
2023/5/9 22:18,13360,-1.3133396,-1.8848555,-0.46822643,-0.5587057,0.5634008,9.774498,0.030328315,-0.02767224,-0.9980373,0.047287174,-1.9027405,-1.3490448,9.371948,0.18380737,0.15545654,-0.1338501
2023/5/9 22:18,13400,-0.17969292,-1.5065002,-0.6838789,-0.6368777,0.6095999,9.766942,0.033943765,-0.029535703,-0.9978629,0.04738315,-0.8726349,-0.9061279,9.170837,0.18060303,0.09048462,0.038711548
2023/5/9 22:18,13441,0.7983158,-1.1490476,-0.8902378,-0.5981613,0.69056827,9.764,0.032227296,-0.03370354,-0.9977037,0.049121026,0.18919373,-0.44284058,8.998444,0.19871521,-0.14494324,0.05895996
2023/5/9 22:18,13480,0.85098815,-1.1553049,-0.21242046,-0.54087186,0.69872063,9.766761,0.029335286,-0.0342518,-0.9977594,0.049421217,0.31967163,-0.42608643,9.689178,-0.100616455,-0.10127258,0.014221191
2023/5/9 22:18,13520,1.1206667,-0.74215245,0.8384924,-0.49104944,0.63181,9.773949,0.026625967,-0.030957494,-0.9979358,0.049566425,0.6668396,-0.08909607,10.785126,-0.08251953,-0.08529663,0.05256653
2023/5/9 22:18,13560,0.36991602,-0.08091211,-0.54342175,-0.44315758,0.6540403,9.774775,0.024275443,-0.032185,-0.9979031,0.050638158,-0.062805176,0.66326904,9.283356,0.117752075,-0.10873413,0.14097595
2023/5/9 22:18,13601,0.4259961,-0.006321967,-0.7987118,-0.42733237,0.65892845,9.775152,0.023553273,-0.03242261,-0.997798,0.052849635,-0.09931946,0.587265,8.981689,-0.046295166,0.05744934,0.071746826
2023/5/9 22:18,13640,-0.20802277,-0.06709409,-2.128047,-0.45334357,0.6525289,9.774408,0.024893697,-0.032002207,-0.99772614,0.053840097,-0.57276917,0.5854645,7.670273,-0.06227112,0.052124023,0.05682373
2023/5/9 22:18,13680,0.336439,0.3576283,-0.87899876,-0.46309873,0.57575566,9.778775,0.025245927,-0.027222108,-0.9977784,0.055315435,-0.18191528,0.9529724,9.192978,-0.33392334,0.0382843,-0.010284424
2023/5/9 22:18,13720,-0.56953186,0.09645778,-0.39902878,-0.50776535,0.44809407,9.783239,0.027137263,-0.021381883,-0.9978518,0.055661075,-1.1186371,0.5495453,9.415039,-0.20501709,0.13095093,0.055755615
2023/5/9 22:18,13761,-0.041008472,0.662647,-1.1855497,-0.547786,0.42324978,9.782187,0.029167928,-0.019912783,-0.99764746,0.058756124,-0.5721741,1.1235657,8.674637,-0.005813599,0.0617218,0.23046875
2023/5/9 22:18,13800,0.36808276,1.1191356,-0.98981285,-0.5527602,0.43548387,9.78137,0.02955383,-0.020383941,-0.99734217,0.063400716,-0.2531433,1.5563202,8.812897,-0.067596436,0.007385254,0.24963379
2023/5/9 22:18,13840,0.53600717,1.399579,0.45281506,-0.5532271,0.40399078,9.782694,0.029587548,-0.018599946,-0.9969748,0.069425166,-0.022705078,1.8280487,10.301498,-0.11021423,0.04573059,0.3252716
2023/5/9 22:18,13880,0.72095186,1.5154017,0.9741497,-0.54319865,0.4137533,9.782849,0.029237099,-0.018939987,-0.99649954,0.0759945,0.17182922,1.9100494,10.786316,-0.013275147,-0.008590698,0.2933197
2023/5/9 22:18,13920,0.5648962,1.0928138,2.7677326,-0.5236688,0.41300762,9.783945,0.028344955,-0.018820094,-0.9960898,0.08153212,-0.033477783,1.4036865,12.685516,0.07727051,-0.056533813,0.2730713
2023/5/9 22:18,13960,0.5897931,1.1108564,1.9075165,-0.45725188,0.5401582,9.78108,0.02567427,-0.025387358,-0.9954325,0.08837652,0.22509766,1.6772156,11.69252,0.35317993,-0.15986633,0.38172913
2023/5/9 22:18,14001,0.36373758,0.114651084,2.467433,-0.43453217,0.61756545,9.7775345,0.025276847,-0.029225335,-0.9946281,0.09603118,-0.03466797,0.7937622,12.3216095,-0.005813599,0.09260559,0.104766846
2023/5/9 22:18,14040,-1.1628075,-2.0733638,3.2972956,-0.46176985,0.6220604,9.776001,0.026881287,-0.029661087,-0.9944283,0.09751904,-1.6028748,-1.6363525,12.945297,0.24559021,0.10220337,0.071746826
2023/5/9 22:18,14080,-0.13709867,-2.7140083,-0.27733517,-0.48264587,0.82382023,9.760059,0.028782396,-0.039332412,-0.9936433,0.10147717,-0.5655823,-1.8464508,9.541336,0.7494507,-0.08848572,0.33592224
2023/5/9 22:18,14120,1.61054,-1.5458282,-2.2574434,-0.31678724,1.0693969,9.743019,0.021950698,-0.052558936,-0.9925999,0.10724352,1.2917175,-0.43685913,7.619995,0.44692993,-0.55400085,0.14204407
2023/5/9 22:18,14161,-0.10976565,-1.8505691,-1.6050787,-0.1563617,1.1061819,9.742807,0.013940109,-0.055323936,-0.99272394,0.10603822,-0.31419373,-0.756485,8.29097,-0.19543457,-0.1300354,-0.19776917
2023/5/9 22:18,14200,-0.50377995,-1.1293111,-0.19509792,-0.21673003,0.9381275,9.759269,0.015855903,-0.046522632,-0.9936576,0.10113749,-0.76968384,-0.1776886,9.754425,-0.5256653,0.35359192,-0.31282043
2023/5/9 22:18,14240,-0.8790958,-0.47605258,-0.06518555,-0.37823918,0.7887506,9.767558,0.023104781,-0.03820078,-0.994325,0.096564256,-1.2251892,0.421463,9.737061,-0.061203003,0.22789001,-0.13172913
2023/5/9 22:18,14280,-0.6456188,-0.16409063,-1.5819244,-0.42544657,0.81900954,9.763125,0.025534883,-0.03958718,-0.99450105,0.09353359,-1.1282196,0.6537018,8.244278,0.03892517,0.046798706,-0.15409851
2023/5/9 22:18,14320,-1.2221335,-0.6811304,-0.6960697,-0.5189007,0.7661776,9.762894,0.029854566,-0.036601134,-0.99493706,0.08870879,-1.8231354,0.08746338,9.128937,-0.2295227,0.42604065,-0.21694946
2023/5/9 22:18,14361,-0.8966566,-0.5727912,-0.7503109,-0.71975356,0.6623238,9.75775,0.04034813,-0.029934019,-0.99518883,0.084114134,-1.5029144,0.13536072,9.208542,-0.21566772,0.34294128,-0.07632446
2023/5/9 22:18,14400,-0.37839395,-0.4529071,0.1970272,-0.7990042,0.6017086,9.755507,0.043306217,-0.02709811,-0.995328,0.081929035,-1.1916656,0.10243225,10.019577,-0.04522705,0.046798706,-0.03691101
2023/5/9 22:18,14440,0.50424355,-0.13477731,0.039078712,-0.8197225,0.5942056,9.754249,0.04420006,-0.026797393,-0.99529016,0.08201058,-0.28726196,0.4501953,9.856766,0.04850769,0.04573059,0.051498413
2023/5/9 22:18,14480,0.5798156,0.12839961,-1.0672789,-0.821591,0.63455683,9.751549,0.044439312,-0.02888791,-0.99530077,0.08103718,-0.26332092,0.78778076,8.754837,0.13586426,-0.0320282,-0.029464722
2023/5/9 22:18,14521,0.76337737,0.5523973,-1.4379835,-0.79671115,0.6619958,9.751789,0.043223817,-0.030476423,-0.995472,0.078983516,-0.06819153,1.3162994,8.445389,-0.06866455,-0.03416443,-0.14770508
2023/5/9 22:18,14560,0.19104362,0.8417609,-0.70583534,-0.77328676,0.62043476,9.756407,0.041719023,-0.028656876,-0.9959642,0.07411838,-0.64219666,1.4826965,9.176819,-0.11340332,-0.06611633,-0.306427
2023/5/9 22:18,14600,-0.42417264,1.2492503,-0.26184082,-0.76747096,0.5740861,9.759703,0.041036297,-0.026639564,-0.9965986,0.066314355,-1.1773071,1.8148804,9.631119,-0.1315155,-0.0128479,-0.34690857
2023/5/9 22:18,14641,-0.8615913,1.2388693,0.3308525,-0.77987134,0.5267786,9.761388,0.04126289,-0.024598991,-0.9972524,0.056390353,-1.7369537,1.7239075,10.14946,-0.16027832,0.023361206,-0.43745422
2023/5/9 22:18,14681,-1.5355047,0.69441855,1.6829338,-0.8254395,0.43617207,9.76211,0.043095786,-0.020338913,-0.99784535,0.04509715,-2.3881683,1.0661011,11.687134,-0.19969177,0.07237244,-0.29577637
2023/5/9 22:18,14720,-1.123774,0.8611348,2.3556557,-0.8198384,0.4460878,9.762134,0.04270722,-0.021113783,-0.9980983,0.039115578,-1.8614502,1.3527985,12.182739,0.323349,-0.21099854,0.09837341
2023/5/9 22:18,14760,0.86233556,1.5160611,1.1124878,-0.7472407,0.63333964,9.7576065,0.039388888,-0.030805968,-0.9979757,0.039293557,0.13352966,2.1859894,10.92099,0.34146118,-0.103393555,0.17401123
2023/5/9 22:18,14800,1.0057303,1.3469102,1.4469433,-0.6732074,0.71597487,9.757282,0.035130154,-0.035467733,-0.9980621,0.037147738,0.38012695,2.1428986,11.2747345,0.045318604,-0.21099854,-0.30749512
2023/5/9 22:18,14840,-0.9562925,-1.2618811,2.6856604,-0.6374589,0.6879784,9.761696,0.033430215,-0.034269784,-0.9985236,0.025663948,-1.6591339,-0.67149353,12.640625,-0.06440735,0.023361206,-0.62387085
2023/5/9 22:18,14880,-2.5320294,-3.3223538,1.271862,-0.74133945,0.69608516,9.753783,0.038285952,-0.03506704,-0.9985748,0.012364854,-3.2985687,-2.6598816,11.07901,0.34892273,0.40686035,-0.33839417
2023/5/9 22:18,14921,-1.0618343,-2.8541481,-1.7927647,-0.87988,0.8454972,9.730433,0.045266647,-0.04401835,-0.9979592,0.009523734,-1.615448,-1.8416595,7.87796,0.5374756,-0.056533813,0.35617065
2023/5/9 22:18,14960,1.0699266,-1.9040245,-1.4072638,-0.8090399,0.9461831,9.727311,0.042010907,-0.047752015,-0.9978761,0.014075326,0.30770874,-0.9109192,8.769211,-0.13365173,-0.07463074,0.33166504
2023/5/9 22:18,15000,0.95304537,-1.3771161,0.14918804,-0.81447,0.88607997,9.732517,0.042381972,-0.044536553,-0.99795896,0.017267996,0.17721558,-0.30638123,9.850784,0.15504456,0.024429321,0.31781006
2023/5/9 22:18,15040,-0.014299512,-0.42085242,-1.6801939,-0.7732932,1.0073143,9.724079,0.0406294,-0.050588362,-0.9976528,0.021883601,-0.8917999,0.599823,8.038376,0.25091553,-0.07463074,0.39237976
2023/5/9 22:18,15080,-0.7842094,-0.587384,-1.735611,-0.72890365,1.0865922,9.718971,0.038840458,-0.054422364,-0.9973433,0.028913245,-1.4879456,0.5585327,8.038376,0.10284424,0.0617218,0.49145508
2023/5/9 22:18,15120,-0.90078074,-0.2772485,-2.086134,-0.79938173,1.0772405,9.71447,0.04296575,-0.053421155,-0.99689084,0.03884297,-1.6615295,0.8302765,7.742096,-0.2337799,0.14587402,0.6235504
2023/5/9 22:18,15161,0.056132317,0.098379314,0.61753654,-0.7934647,0.9542603,9.727804,0.042923484,-0.046664376,-0.99674016,0.04989062,-0.74754333,1.0583191,10.493637,-0.4606781,0.015914917,0.62034607
2023/5/9 22:18,15200,-0.08532953,-0.119939685,1.8091898,-0.7892909,0.84781593,9.737999,0.042931277,-0.04070828,-0.99631137,0.062156487,-0.9103546,0.7231293,11.5985565,-0.0846405,0.065979004,0.7183533
2023/5/9 22:18,15240,-0.869119,-0.23476285,-0.5954695,-0.7901523,0.90074104,9.733176,0.04376337,-0.04278918,-0.99520105,0.07634636,-1.6896667,0.65071106,9.178619,0.057037354,0.05744934,0.9250183
2023/5/9 22:18,15280,-1.051434,-0.14894968,-0.79821014,-0.8490727,0.89726126,9.728535,0.04749214,-0.041560587,-0.99359167,0.09377,-1.944046,0.7644348,8.918243,-0.14749146,0.28648376,1.0517883
2023/5/9 22:18,15320,-0.78165746,0.080506325,-1.333868,-0.8979201,0.8929473,9.724545,0.05082131,-0.040042497,-0.9912792,0.11480119,-1.6214294,1.0840607,8.507645,-0.1357727,0.13734436,1.2893372
2023/5/9 22:18,15361,-0.26280499,0.48543984,-0.27421188,-0.9169674,0.85409105,9.726258,0.052433573,-0.036736906,-0.98835677,0.13802893,-1.2299805,1.2983398,9.650269,-0.28598022,0.18208313,1.2925262
2023/5/9 22:18,15400,0.040207505,0.23109478,0.14736557,-0.9371803,0.8343161,9.726048,0.054157205,-0.034301538,-0.98474735,0.16174996,-0.8127899,1.0541229,9.927399,-0.04736328,0.11390686,1.397995
2023/5/9 22:18,15440,0.38626128,0.06028521,-0.08781147,-0.9174262,0.8949233,9.722543,0.05466868,-0.036050558,-0.9798961,0.18845503,-0.5099182,0.9613495,9.726883,0.03253174,0.06704712,1.4565887
2023/5/9 22:18,15482,0.47819108,0.22862226,-0.21082592,-0.882544,0.9660057,9.718967,0.054540936,-0.03867608,-0.9750668,0.21159934,-0.41833496,1.2109528,9.569473,0.029342651,0.070236206,1.4438019
2023/5/9 22:18,15520,0.22298986,0.3692553,0.7030344,-0.8619661,1.0068693,9.716667,0.05486279,-0.039723326,-0.9700258,0.23337123,-0.6511688,1.4066772,10.518173,-0.055877686,0.14161682,1.5567169
2023/5/9 22:18,15560,0.1494047,0.34363842,1.8436527,-0.8334683,1.0599358,9.713509,0.055308826,-0.041107416,-0.9627239,0.26156035,-0.6984558,1.4126587,11.639847,0.119888306,-0.0554657,1.7687073
2023/5/9 22:18,15601,0.33024293,-0.32143605,1.4317541,-0.6581707,1.2013009,9.710514,0.049971018,-0.049035657,-0.9548508,0.28871852,-0.3518982,0.8542175,11.194534,0.19125366,-0.24613953,1.7751007
2023/5/9 22:18,15640,-0.6290491,-1.799356,2.2555866,-0.5178314,1.1572285,9.724354,0.043829434,-0.047696106,-0.94647825,0.31620088,-1.1413879,-0.7672577,12.426346,-0.54270935,-0.1065979,1.5673676
2023/5/9 22:18,15680,-0.87236106,-2.9811113,2.8302078,-0.46884912,1.012804,9.742935,0.04015582,-0.040448047,-0.9384518,0.34067526,-1.2784576,-1.934433,12.48262,0.057037354,0.09048462,1.4587097
2023/5/9 22:18,15720,-1.4871774,-2.4649844,-1.3825254,-0.47330424,1.1721295,9.724838,0.04430319,-0.0469943,-0.9296015,0.36286336,-1.8985596,-1.1742706,8.085663,0.6163025,0.1639862,1.464035
2023/5/9 22:18,15760,-0.8610248,-1.3906149,-3.1584778,-0.4928007,1.3436432,9.701657,0.050210804,-0.05357422,-0.91927695,0.3867022,-1.4580231,0.04676819,6.663498,-0.006881714,0.28329468,1.2999878
2023/5/9 22:18,15801,-1.8134205,-1.6972303,-1.1343126,-0.568109,1.2203007,9.713831,0.051778357,-0.04529326,-0.91238517,0.4035106,-2.3540497,-0.47216797,8.612991,-0.5682678,0.2736969,1.0432587
2023/5/9 22:18,15840,-1.6518902,-1.1969452,0.58269215,-0.6209073,1.0052096,9.735215,0.050387595,-0.033215344,-0.9053609,0.42033264,-2.2385254,-0.1483612,10.458908,-0.52033997,0.13308716,1.2818756
2023/5/9 22:18,15880,-0.6077901,-0.2958048,0.6764078,-0.62205285,0.92040277,9.7435255,0.049257353,-0.028145274,-0.89578295,0.44085655,-1.220993,0.6776428,10.482254,-0.12193298,0.21511841,1.4523163
2023/5/9 22:18,15920,-0.39054644,0.29025435,-0.84587765,-0.67346513,0.9128513,9.740817,0.052111555,-0.025315888,-0.88414115,0.46361402,-1.0366364,1.2109528,9.006836,-0.16773987,0.18528748,1.3383331
2023/5/9 22:18,15960,-0.9015217,-0.30622,0.005253792,-0.7026626,0.8571623,9.743814,0.05251396,-0.021118704,-0.87533015,0.4802014,-1.7237854,0.39631653,9.894485,-0.29130554,0.27690125,1.1380768
2023/5/9 22:18,16000,-1.6846074,-1.1189897,-0.5313101,-0.79330236,0.78838116,9.742664,0.055156406,-0.014836635,-0.86664313,0.4956484,-2.501892,-0.3434906,9.152283,-0.1826477,0.20019531,1.302124
2023/5/9 22:18,16041,-0.7811592,-1.0180366,-0.34620762,-0.8088617,0.7436518,9.744902,0.054884203,-0.01166241,-0.8594001,0.5082157,-1.489151,-0.21539307,9.540741,-0.23059082,0.08834839,1.4544525
2023/5/9 22:18,16080,-0.45910698,-0.8535618,-0.19337273,-0.80814505,0.71185493,9.747335,0.054100085,-0.009735392,-0.85330594,0.518505,-1.2473297,-0.119628906,9.508423,-0.065475464,0.05319214,1.4246216
2023/5/9 22:18,16120,0.355882,-0.23048532,-0.5296402,-0.7689006,0.72271645,9.749711,0.05249338,-0.010514472,-0.84551394,0.5312627,-0.26211548,0.5303955,9.425217,-0.13470459,-0.052261353,1.3596497
2023/5/9 22:18,16160,1.0466415,0.18473613,0.087794304,-0.71113926,0.70785946,9.755183,0.049851004,-0.010808971,-0.8394981,0.540963,0.3849182,0.95417786,9.956726,-0.102752686,0.006317139,1.0784149
2023/5/9 22:18,16200,0.96008176,0.7106788,-0.09916973,-0.683774,0.70984,9.756996,0.049042203,-0.011248482,-0.8361488,0.54619,0.24545288,1.4240265,9.725098,-0.05480957,0.027633667,0.7950592
2023/5/9 22:18,16240,0.47950196,0.88093597,0.12588596,-0.6493755,0.7214584,9.758494,0.04798699,-0.012351158,-0.8321275,0.5523663,-0.1675415,1.6209564,9.9734955,-0.026062012,-0.05014038,0.54045105
2023/5/9 22:18,16280,-0.19821131,0.5432861,0.5921135,-0.6406978,0.71712935,9.759387,0.047556147,-0.01217388,-0.8293714,0.5565369,-0.85528564,1.1792297,10.519363,-0.067596436,0.07556152,0.26455688
2023/5/9 22:18,16321,-0.6414656,-0.11437589,0.7416916,-0.67182815,0.7338457,9.75605,0.049330983,-0.012098009,-0.83042675,0.55480766,-1.3748169,0.6321564,10.510391,0.12628174,0.05532837,0.1803894
2023/5/9 22:18,16360,-0.651586,-0.1652214,0.9400587,-0.65563494,0.7919124,9.75261,0.05027019,-0.015105661,-0.83125937,0.55340093,-1.2371521,0.6165924,10.863541,0.12734985,-0.107666016,0.30822754
2023/5/9 22:18,16400,0.42282993,0.16047609,1.6441727,-0.6000156,0.8473371,9.7515335,0.049313407,-0.019682854,-0.8324708,0.551519,-0.04244995,0.98768616,11.607529,0.1390686,-0.119384766,0.25816345
2023/5/9 22:18,16440,1.1778711,0.09943777,2.363594,-0.56211394,0.89314157,9.749703,0.048916887,-0.022539498,-0.8361765,0.54580945,0.6392975,0.9451904,12.340759,0.005905151,0.006317139,-0.04862976
2023/5/9 22:18,16480,-0.3367908,-1.6580718,3.1552877,-0.55760473,0.9139454,9.7480345,0.049010307,-0.02421938,-0.8438565,0.5337767,-0.93907166,-0.8151398,12.994965,0.32228088,-0.033096313,-0.18818665
2023/5/9 22:18,16520,-0.9235467,-3.0084238,-0.21564579,-0.5920925,1.1058857,9.72609,0.055412684,-0.032200146,-0.8492943,0.524015,-1.5148773,-1.8697968,9.553909,0.6546478,0.17570496,-0.031585693
2023/5/9 22:18,16561,-0.8031357,-2.8910675,-2.1709318,-0.70787454,1.2792963,9.697045,0.06499232,-0.0369358,-0.85086435,0.52004,-1.5023193,-1.5950623,7.6223907,0.3670349,0.28329468,0.20489502
2023/5/9 22:18,16600,0.8462728,-2.5844517,-1.6171856,-0.7283634,1.3346652,9.688062,0.0673927,-0.03878845,-0.8504716,0.520242,0.17182922,-1.2197571,8.278992,-0.009017944,-0.0874176,0.38598633
2023/5/9 22:18,16640,1.9017637,-1.4971263,0.3531313,-0.66084236,1.3009707,9.697481,0.06364904,-0.038921017,-0.8491191,0.522906,1.2390442,-0.17230225,10.178787,-0.06333923,-0.023498535,0.23579407
2023/5/9 22:18,16680,1.3416524,-1.1524998,0.33216095,-0.6339068,1.3081703,9.698311,0.062607646,-0.04005038,-0.8499262,0.5216337,0.6321106,0.14552307,9.994446,0.19657898,-0.027770996,0.17720032
2023/5/9 22:18,16720,0.5632642,-1.2490001,-1.2346373,-0.5838802,1.3966715,9.689106,0.062733784,-0.045360155,-0.85059494,0.52009153,-0.07417297,0.13835144,8.466934,0.21896362,-0.07783508,0.17294312
2023/5/9 22:18,16760,0.16089511,-1.3369735,-2.0246916,-0.5596823,1.43553,9.684854,0.062642924,-0.047809426,-0.85135674,0.51863456,-0.45066833,0.067718506,7.7217407,-0.048431396,-0.020309448,0.15802002
2023/5/9 22:18,16801,0.19053543,-1.3349214,-0.36434078,-0.51786727,1.336111,9.701392,0.05807462,-0.044654302,-0.8525526,0.51748174,-0.31419373,-0.007705689,9.647278,-0.39782715,-0.12150574,0.16868591
2023/5/9 22:18,16840,0.102460444,-1.2678326,1.5055285,-0.49930894,1.1781629,9.722809,0.052381136,-0.038234416,-0.8572962,0.5107225,-0.3914032,-0.028656006,11.265167,-0.18478394,0.006317139,0.35510254
2023/5/9 22:18,16880,1.1624988,-0.35721636,-0.050418854,-0.40974438,1.1839648,9.726291,0.049098518,-0.041067567,-0.8554078,0.5139848,0.77456665,0.85839844,9.771179,0.13267517,-0.25146484,0.427536
2023/5/9 22:18,16920,1.0560626,0.10244143,-0.6288824,-0.32196343,1.2148436,9.725784,0.046156246,-0.044638637,-0.85437363,0.5156769,0.7254944,1.3480225,9.184006,-0.001556397,-0.05014038,0.23153687
2023/5/9 22:18,16960,0.61147666,0.112534404,-1.0515223,-0.29360065,1.20475,9.727938,0.044636462,-0.0449536,-0.8545379,0.51551116,0.3053131,1.3378448,8.758438,-0.07505798,-0.044815063,0.17294312
2023/5/9 22:18,17000,0.26140997,-0.052948475,-0.64683247,-0.25859603,1.1689707,9.733295,0.04210197,-0.044356715,-0.8552736,0.51455516,-0.013122559,1.136734,9.267197,-0.11553955,-0.07569885,0.16654968
2023/5/9 22:18,17040,1.009453,0.4158032,-0.007824898,-0.2124197,1.1536047,9.736244,0.039501112,-0.045048203,-0.85730076,0.5113177,0.82484436,1.6419067,9.733475,0.049575806,-0.053329468,0.21661377
2023/5/9 22:18,17080,0.9935158,0.73157215,-0.97591305,-0.19670375,1.1945685,9.731634,0.039666057,-0.047448512,-0.8595881,0.5072313,0.76020813,1.9393921,8.678223,0.070877075,0.05744934,0.05895996
2023/5/9 22:18,17121,0.7358486,0.68213534,-0.77989006,-0.20734249,1.1864339,9.732409,0.039576557,-0.04710603,-0.8633146,0.5009018,0.4902649,1.8927002,9.227097,-0.20715332,0.046798706,-0.06462097
2023/5/9 22:18,17160,0.5325569,0.75799954,0.92761993,-0.23422931,1.1241313,9.739191,0.038806673,-0.043853473,-0.86939967,0.49062732,0.31069946,1.9627228,10.84198,-0.07185364,0.13095093,-0.029464722
2023/5/9 22:18,17200,0.20115873,1.0300765,0.54761314,-0.30730394,1.1286308,9.736639,0.041667707,-0.042817805,-0.8731519,0.48377293,-0.16514587,2.1668396,10.364944,0.028274536,0.24281311,-0.08804321
2023/5/9 22:18,17240,-0.865739,0.87074137,0.77114105,-0.4152875,1.1524532,9.729839,0.046826325,-0.04151569,-0.8760661,0.4781129,-1.2946167,2.0327606,10.617523,0.09538269,0.24067688,0.16973877
2023/5/9 22:18,17280,0.2659835,0.8963778,0.5413761,-0.47671297,1.2688291,9.712528,0.05246931,-0.045231115,-0.8754959,0.4782343,-0.1567688,2.184784,10.304489,0.40112305,0.1639862,0.43392944
2023/5/9 22:18,17320,0.7518085,0.16534138,0.74199677,-0.5104551,1.3584278,9.698685,0.05633009,-0.048286606,-0.8738756,0.48045468,0.21372986,1.4527588,10.614532,-0.19436646,0.09474182,0.10688782
2023/5/9 22:18,17361,0.5894974,-2.6514301,5.0328474,-0.51471263,1.1940317,9.720069,0.0523673,-0.040890872,-0.8752405,0.479103,0.008422852,-1.6435394,15.214401,-0.33285522,0.023361206,-0.037979126
2023/5/9 22:18,17400,-0.14493388,-3.8051696,2.7319336,-0.60700005,1.2006601,9.713925,0.056541804,-0.03912357,-0.8767377,0.47602868,-0.7625122,-2.5353851,11.945709,0.6482544,0.4686432,0.23472595
2023/5/9 22:18,17440,-0.023002505,-2.8381462,-3.0333443,-0.7172199,1.4871006,9.66667,0.068660505,-0.04922115,-0.8747078,0.47723076,-0.70803833,-1.1694794,6.53183,0.73454285,0.10858154,0.33485413
2023/5/9 22:18,17480,0.17076641,-2.2319283,-2.5233593,-0.715537,1.5758151,9.65273,0.07084998,-0.053179063,-0.87380594,0.47813743,-0.4530487,-0.79060364,7.5068665,-0.31687927,0.15971375,0.15589905
2023/5/9 22:18,17520,0.8013906,-1.0159632,0.58712864,-0.825283,1.3784432,9.67415,0.071063094,-0.040237214,-0.87530607,0.47662383,-0.014312744,0.39692688,10.384094,-0.43937683,0.38023376,-0.21481323
2023/5/9 22:18,17560,-0.58173615,-1.9130455,0.9145498,-0.90133965,1.2199755,9.688635,0.070081726,-0.033251867,-0.87898254,0.47050247,-1.473587,-0.6894531,10.744415,-0.053756714,-0.23123169,-0.09124756
2023/5/9 22:18,17601,0.40341002,-1.7628447,-0.09251022,-0.8169279,1.2796894,9.6884165,0.06762664,-0.038142957,-0.8800969,0.46840274,-0.38841248,-0.43327332,9.655655,0.33399963,-0.0320282,0.15589905
2023/5/9 22:18,17640,0.68432647,-1.1185349,-2.224965,-0.7706872,1.4162775,9.673188,0.06882726,-0.04546903,-0.87996453,0.46782234,-0.0657959,0.3388672,7.4996796,0.35850525,-0.3058014,0.079193115
2023/5/9 22:18,17680,1.107566,-0.42531717,-1.3494911,-0.70382166,1.4284607,9.676494,0.065986775,-0.047769222,-0.8810859,0.46588784,0.39149475,1.0122375,8.4483795,-0.31687927,0.1405487,-0.1295929
2023/5/9 22:18,17720,-0.094365954,-0.47517216,-0.1480608,-0.8174069,1.2716566,9.689434,0.06711328,-0.038369134,-0.8842709,0.46053082,-1.097702,0.7428894,9.6658325,-0.363739,0.30245972,-0.4363861
2023/5/9 22:18,17760,-1.0400136,-0.82709706,0.21160507,-0.9075749,1.1344161,9.698443,0.06764321,-0.03068271,-0.88901865,0.45180613,-1.9649963,0.3645935,10.080032,-0.25828552,0.093673706,-0.3298645
2023/5/9 22:18,17800,-0.49029785,-0.36414313,0.38694954,-0.9510023,1.066993,9.701934,0.06798206,-0.027149836,-0.8924851,0.44509742,-1.4221039,0.74887085,10.150055,0.06661987,0.019104004,-0.10722351
2023/5/9 22:18,17840,0.42535013,0.30341566,-1.3181953,-0.94996417,1.1046063,9.6978245,0.06848444,-0.02924026,-0.89376694,0.44230708,-0.43688965,1.4030762,8.402893,0.02720642,-0.06185913,-0.05822754
2023/5/9 22:18,17881,0.67351884,0.19086921,-0.02874279,-0.92190063,1.0668834,9.704754,0.0659859,-0.027911507,-0.8957707,0.43870446,-0.23937988,1.260025,9.672424,-0.16560364,-0.058654785,-0.19776917
2023/5/9 22:18,17920,0.14673483,0.31112087,-0.24069309,-0.9104297,1.0340539,9.70939,0.064883664,-0.027368622,-0.89833164,0.43363726,-0.7888489,1.3563995,9.514999,0.039993286,-0.051208496,-0.2084198
2023/5/9 22:18,17960,0.19491202,0.7949939,-0.53153133,-0.8807796,1.0402389,9.711463,0.06347166,-0.028714672,-0.90111786,0.4279409,-0.6840973,1.880127,9.25882,-0.03138733,-0.15452576,-0.20736694
2023/5/9 22:18,18000,0.22815615,0.9088416,0.4623413,-0.8009802,1.0150626,9.721031,0.059011336,-0.029714756,-0.9043569,0.42163166,-0.5566101,1.9322052,10.260788,-0.08996582,-0.18756104,-0.25849915
2023/5/9 22:18,18040,0.032729983,0.9735706,0.8202858,-0.76194745,0.991232,9.726628,0.056440834,-0.029907381,-0.9078693,0.41435903,-0.82714844,2.0279694,10.647461,-0.028182983,-0.10446167,-0.30856323
2023/5/9 22:18,18081,-0.52721363,0.79590523,0.7658911,-0.7228737,1.0141985,9.727242,0.054898698,-0.032168433,-0.9106149,0.40832806,-1.283844,1.8340454,10.519363,0.18380737,-0.17370605,-0.20948792
2023/5/9 22:18,18120,0.2480864,0.9079943,0.42375278,-0.63828856,1.1179383,9.721789,0.052943625,-0.03903418,-0.91244894,0.40386903,-0.271698,2.0997925,10.310471,0.323349,-0.31219482,-0.06248474
2023/5/9 22:18,18160,1.1794978,0.63907623,0.38487625,-0.5282277,1.2327002,9.714515,0.04996088,-0.046919793,-0.9141927,0.39944234,0.66444397,1.8101044,10.240448,0.0410614,-0.11299133,-0.25849915
2023/5/9 22:18,18200,1.0594709,-0.08069861,2.530838,-0.5278614,1.1253835,9.727551,0.04661413,-0.041096196,-0.919296,0.38862973,0.5118103,0.9056854,12.812408,-0.5554962,-0.040542603,-0.61216736
2023/5/9 22:18,18240,-1.3228198,-2.7546403,4.9474382,-0.50030994,0.9561169,9.747098,0.041920338,-0.035763174,-0.92636204,0.37258163,-1.9093323,-1.8560181,14.723587,0.15716553,-0.058654785,-0.8220215
2023/5/9 22:18,18281,-2.9279358,-3.74079,-0.18484688,-0.5957748,1.1011736,9.7264,0.048685357,-0.04148924,-0.93074375,0.36003387,-3.529602,-2.6125946,9.571259,0.6248169,0.25985718,-0.24357605
2023/5/9 22:18,18320,-1.2435977,-3.4211206,-2.5586233,-0.6772621,1.2895432,9.697875,0.056100912,-0.04897623,-0.9299191,0.3601451,-1.8722229,-2.085266,7.2788086,0.499115,-0.06930542,0.38172913
2023/5/9 22:18,18360,0.60936177,-2.2987163,-2.164836,-0.5530948,1.4109278,9.688847,0.052882656,-0.05665434,-0.92683685,0.3673788,0.10598755,-0.83369446,7.694809,0.1742096,-0.37504578,0.5905304
2023/5/9 22:18,18400,2.536873,-0.9132577,-1.3666258,-0.39426097,1.4415146,9.692109,0.046453934,-0.06067944,-0.92355865,0.37576514,2.2302399,0.607605,8.407089,0.003768921,-0.17796326,0.39237976
2023/5/9 22:18,18440,1.2562208,-0.63062334,-0.9026766,-0.30100578,1.4116983,9.69984,0.041613307,-0.060943823,-0.92275757,0.37824947,0.83322144,0.70936584,8.920639,-0.22099304,-0.13110352,0.013153076
2023/5/9 22:18,18480,0.6526079,-0.6807393,0.5466871,-0.27969387,1.2930241,9.717009,0.03830806,-0.05570424,-0.923021,0.3787634,0.3274536,0.6860199,10.378708,-0.16773987,0.006317139,0.12713623
2023/5/9 22:18,18520,0.42439318,-0.33640158,-0.50254345,-0.23472376,1.2715096,9.721037,0.035412807,-0.055568147,-0.9228796,0.37940922,0.08683777,0.9386139,9.177414,-0.030319214,-0.14175415,0.053634644
2023/5/9 22:18,18561,-0.6280824,-0.89226055,-0.058314323,-0.21294294,1.1957846,9.731144,0.032951623,-0.05158111,-0.9236411,0.37833938,-0.8217621,0.29637146,9.670624,-0.330719,0.013778687,0.029129028
2023/5/9 22:18,18600,-0.39613205,-1.0563956,0.78881454,-0.21081598,1.0793779,9.744787,0.03092625,-0.046879366,-0.9233434,0.3798457,-0.57455444,0.053359985,10.609146,-0.058013916,-0.058654785,0.3156891
2023/5/9 22:18,18640,0.78240854,-0.16518474,-0.90808296,-0.15710287,1.1305848,9.739995,0.029656125,-0.050189935,-0.9211915,0.38471764,0.65844727,1.0086365,8.830856,0.2210846,-0.091674805,0.4317932
2023/5/9 22:18,18680,1.360967,0.52786076,-1.76651,-0.093770795,1.1895146,9.7337885,0.028118186,-0.05407634,-0.9190261,0.3894562,1.2528076,1.7364807,8.031784,-4.88E-04,-0.054397583,0.23153687
2023/5/9 22:18,18720,1.0608419,0.8479718,-0.9266739,-0.08441978,1.1530441,9.738263,0.026963875,-0.052533478,-0.9190166,0.38977125,0.96131897,2.0249786,8.88353,-0.18157959,0.08621216,0.039779663
2023/5/9 22:18,18760,0.62165534,0.9198669,-0.7758398,-0.100705005,1.1147084,9.742571,0.026848746,-0.050461084,-0.9199921,0.38774648,0.44476318,2.0076141,8.997253,-0.07292175,0.02230835,-0.05076599
2023/5/9 22:18,18801,-0.10144726,0.59297216,-0.39978218,-0.10548594,1.0817524,9.746233,0.026326789,-0.048859816,-0.9207979,0.38607115,-0.26271057,1.5545197,9.395294,-0.1826477,0.07130432,-0.06994629
2023/5/9 22:18,18840,-0.64886653,0.22470534,0.018864632,-0.16239958,1.0039382,9.753775,0.027378164,-0.044117253,-0.9217365,0.38432536,-0.8026123,1.236084,9.796326,-0.27319336,0.1906128,-0.010284424
2023/5/9 22:18,18880,-0.93052214,-0.055391073,0.27047348,-0.24155378,0.93105555,9.759363,0.030020205,-0.03886049,-0.9217128,0.38475206,-1.1264191,0.91586304,9.994446,-0.0526886,0.16931152,0.28160095
2023/5/9 22:18,18920,0.27390695,0.76527286,0.10504818,-0.29350224,0.932672,9.757785,0.032630682,-0.038009122,-0.91930366,0.39034772,0.08325195,1.7867584,9.919022,0.014419556,0.13841248,0.5191498
2023/5/9 22:18,18960,1.5056272,2.0292778,1.1404037,-0.31371903,0.978817,9.752634,0.03464717,-0.03941563,-0.91548294,0.39891973,1.2348633,3.043106,10.970673,0.110305786,0.091537476,0.603302
2023/5/9 22:18,19001,2.5640502,2.1803613,1.9310169,-0.3002361,1.0670338,9.743802,0.0361726,-0.043541804,-0.912059,0.406133,2.203308,3.2280579,11.766144,0.12414551,0.13841248,0.17294312
2023/5/9 22:18,19040,0.49148652,-0.4943155,3.3019829,-0.3610288,1.0403101,9.744629,0.038359262,-0.041118737,-0.913,0.4040654,0.08743286,0.44181824,13.198486,-0.2604065,0.17250061,-0.17539978
2023/5/9 22:18,19080,-0.79937136,-2.9912443,4.619666,-0.40400258,0.9495387,9.752207,0.03827574,-0.036204774,-0.91547817,0.3989034,-1.3610535,-2.1732483,14.336929,0.14758301,0.089416504,-0.11680603
2023/5/9 22:18,19120,-1.0809155,-3.4809642,-0.08998966,-0.47011262,1.1217912,9.730928,0.04489977,-0.042950556,-0.91505307,0.39851865,-1.5196686,-2.2570496,9.268402,0.83573914,0.124572754,0.34231567
2023/5/9 22:18,19160,-0.006210506,-2.2823586,-3.313734,-0.43326786,1.3976585,9.696866,0.049196698,-0.05636578,-0.9117507,0.40387288,-0.3800354,-0.6798706,6.4151,0.5044403,-0.24188232,0.33805847
2023/5/9 22:18,19200,0.3198112,-2.0775146,-1.7443943,-0.35205403,1.4216496,9.696668,0.045986228,-0.059100162,-0.91113657,0.4052438,-0.060409546,-0.76187134,8.283783,-0.32432556,0.05000305,-0.011352539
2023/5/9 22:18,19241,0.38233152,-1.5223943,0.7244606,-0.4399853,1.2485511,9.716887,0.047024224,-0.048029263,-0.9124703,0.4035838,-0.14360046,-0.19204712,10.631302,-0.32006836,0.43562317,-0.09976196
2023/5/9 22:18,19280,-0.36192077,-1.451686,0.10072327,-0.586793,1.1981696,9.715475,0.052539993,-0.04434652,-0.9128935,0.40236598,-0.90496826,-0.1309967,9.717911,0.26049805,0.070236206,0.13032532
2023/5/9 22:18,19320,0.553375,-0.26883113,-1.5380154,-0.55057603,1.3072726,9.703519,0.052784823,-0.049718812,-0.91202897,0.40366447,0.004837036,1.0331726,8.237091,0.11135864,-0.056533813,0.053634644
2023/5/9 22:18,19360,0.17047155,-0.49477017,-0.7027168,-0.554393,1.2735304,9.7077875,0.052175403,-0.048148453,-0.9128324,0.40211508,-0.4189453,0.7805939,9.1026,-0.154953,0.06384277,-0.1295929
2023/5/9 22:18,19400,-0.11403018,-0.4747671,-0.50521564,-0.58427536,1.2214758,9.712725,0.052348565,-0.0452607,-0.9142372,0.3992261,-0.70085144,0.7740021,9.280365,-0.08677673,0.003128052,-0.1338501
2023/5/9 22:18,19440,-0.071219504,-0.48829806,0.12515831,-0.59692734,1.1689348,9.718419,0.051686503,-0.04274426,-0.91597813,0.3955825,-0.6745148,0.6884155,9.857376,-0.15388489,0.079818726,-0.21694946
2023/5/9 22:18,19481,-0.5568916,-0.6658894,-0.28774166,-0.6656946,1.1054761,9.721376,0.053428423,-0.03864132,-0.9180331,0.39098266,-1.2329712,0.3891449,9.456345,-0.093170166,0.10752869,-0.21481323
2023/5/9 22:18,19520,-0.3424933,-0.6425203,-0.3268385,-0.68569785,1.0704944,9.723902,0.053525493,-0.036797583,-0.91957164,0.38751638,-0.9887543,0.47174072,9.426407,-0.007949829,-0.05014038,-0.05822754
2023/5/9 22:18,19560,0.41751385,-0.00881505,-0.68383026,-0.66776246,1.07096,9.725098,0.05256148,-0.037216846,-0.9203284,0.3858081,-0.21603394,1.1744385,9.104996,-0.028182983,-0.009658814,-0.03479004
2023/5/9 22:18,19600,0.4299283,0.48020196,-0.5583439,-0.67398155,1.0456988,9.727418,0.052254394,-0.035864703,-0.9213436,0.38354802,-0.30940247,1.544342,9.246246,-0.09742737,9.92E-04,-0.13172913
2023/5/9 22:18,19640,0.29229575,0.5382652,-0.4422331,-0.65047795,1.0057122,9.7332325,0.050285522,-0.034851693,-0.92294025,0.3800501,-0.38542175,1.6137695,9.483276,-0.11872864,-0.09701538,-0.19883728
2023/5/9 22:18,19680,0.03948915,0.7576134,0.20825386,-0.6457504,0.9594083,9.73822,0.048968706,-0.033030756,-0.9251999,0.37485477,-0.6469879,1.7167206,9.976486,-0.08996582,0.005264282,-0.31707764
2023/5/9 22:18,19721,-0.40582472,0.6560742,0.21415138,-0.64264613,0.92803776,9.741465,0.048028223,-0.031887475,-0.92747915,0.3694034,-1.0258636,1.5670929,10.034546,-0.08357239,-0.091674805,-0.20629883
2023/5/9 22:18,19760,-0.1830765,0.9166128,0.9496803,-0.6050584,0.91528076,9.745077,0.045877524,-0.032164264,-0.9289632,0.36590722,-0.7954254,1.8316498,10.771362,0.022949219,-0.1065979,-0.1487732
2023/5/9 22:18,19800,-0.23204142,1.1433101,0.5971832,-0.57251734,0.95799756,9.742938,0.045062553,-0.03489633,-0.9296532,0.36400068,-0.7642975,2.1285248,10.374512,0.1742096,-0.14068604,-0.028396606
2023/5/9 22:18,19840,0.9433487,1.5607189,0.40293694,-0.48582596,1.0698453,9.736005,0.04303963,-0.041826975,-0.9294065,0.36414498,0.5435333,2.7396393,10.130905,0.32867432,-0.25785828,-0.016677856
2023/5/9 22:18,19881,1.4675877,1.004128,0.66459656,-0.41189507,1.1534325,9.729868,0.040930245,-0.04732374,-0.9304678,0.36099154,0.97987366,2.117752,10.675583,-0.051620483,-0.095947266,-0.38739014
2023/5/9 22:18,19920,0.39007962,-0.5697522,2.6403284,-0.39260948,1.0813023,9.738944,0.03779,-0.044123534,-0.9354297,0.34870657,-0.1675415,0.34065247,12.5711975,-0.22206116,-0.093811035,-0.7335968
2023/5/9 22:18,19960,-1.3468207,-2.6113403,3.3951464,-0.4278185,0.92367625,9.7536745,0.03629531,-0.03719704,-0.9416877,0.33245048,-2.0362244,-1.8703918,13.336746,-0.2710724,0.11178589,-0.8731537
2023/5/9 22:18,20000,-2.931088,-3.8139067,1.2793427,-0.59637076,0.8929907,9.747682,0.043501683,-0.033379074,-0.945425,0.3211932,-3.5517578,-2.9022827,11.070633,0.37768555,0.3951416,-0.18711853
2023/5/9 22:18,20040,-0.71200323,-2.8501267,-2.4603806,-0.6690281,1.1244115,9.718976,0.051049188,-0.04317564,-0.94326764,0.3252322,-1.26828,-1.637558,7.3129272,0.7473297,-0.16731262,0.6309967
2023/5/9 22:18,20080,1.7534231,-1.387137,-2.6723862,-0.5159915,1.3096728,9.705096,0.047371723,-0.054163806,-0.9392102,0.33571786,1.2564087,-0.062164307,7.1662903,0.09963989,-0.20779419,0.47120667
2023/5/9 22:18,20121,1.351052,-0.96180356,-1.3432932,-0.5154741,1.24329,9.713851,0.046487086,-0.05069896,-0.937471,0.34119892,0.78834534,0.31671143,8.50824,-0.31687927,0.2651825,0.1953125
2023/5/9 22:18,20160,1.1935942,-0.064949155,-0.6814728,-0.54065317,1.145487,9.724503,0.046164036,-0.0453571,-0.93629366,0.34520403,0.60517883,1.08107,9.233688,-0.20075989,-0.06185913,0.14204407
2023/5/9 22:18,20200,1.0385171,-0.24636531,-0.0742445,-0.5018347,1.0754677,9.734573,0.04313453,-0.042594675,-0.9358851,0.3470508,0.4136505,0.81111145,9.6772,-0.17732239,0.056396484,0.013153076
2023/5/9 22:18,20240,-0.35999727,-0.7233575,-0.8045225,-0.54613584,0.9928091,9.740969,0.043748707,-0.03788034,-0.93633443,0.34630755,-0.999527,0.23950195,8.989471,-0.2657318,0.12562561,-0.047576904
2023/5/9 22:18,20281,-0.6570937,-0.8795658,-0.13746929,-0.5813327,0.8707881,9.750599,0.0433045,-0.03134594,-0.9360978,0.34765363,-1.1761017,-0.007095337,9.786148,-0.24230957,-0.039489746,0.21342468
2023/5/9 22:18,20320,0.49305975,-0.14221334,-0.21265888,-0.5495484,0.81612986,9.757167,0.040819146,-0.028865289,-0.934165,0.35332194,0.03955078,0.7937622,9.530563,-0.10914612,0.009521484,0.30715942
2023/5/9 22:18,20360,0.78421086,0.46385133,-0.86422825,-0.5394598,0.7708127,9.7614155,0.03980456,-0.026869312,-0.93254787,0.3578381,0.26341248,1.2289124,8.928421,-0.15281677,0.002059937,0.20489502
2023/5/9 22:18,20400,0.73080903,0.49579793,-0.2918663,-0.5295938,0.69159466,9.767887,0.03794166,-0.02316908,-0.93174016,0.3603941,0.2089386,1.2229156,9.565872,-0.28277588,0.013778687,0.125
2023/5/9 22:18,20440,0.4524157,0.5574874,0.014227867,-0.5372016,0.62236756,9.772127,0.037052326,-0.019680725,-0.9313442,0.36171502,-0.09931946,1.1929932,9.809494,-0.06652832,0.054260254,0.11328125
2023/5/9 22:18,20480,0.8241789,0.8733345,-0.9621906,-0.535484,0.62738085,9.771901,0.03709818,-0.019886408,-0.93070686,0.36333594,0.29632568,1.5191956,8.9188385,-0.05480957,-0.018173218,0.08451843
2023/5/9 22:18,20521,0.45996255,0.42965335,0.041347504,-0.5425752,0.5702752,9.775008,0.03636479,-0.01705555,-0.9309477,0.36293668,-0.16815186,0.9745178,9.960327,-0.21780396,0.08514404,-0.009216309
2023/5/9 22:18,20560,0.44021225,0.4459374,0.57956696,-0.55964255,0.51389253,9.777172,0.036123816,-0.014071691,-0.9311376,0.36260143,-0.10290527,0.9906769,10.493637,-0.0846405,-0.010726929,0.079193115
2023/5/9 22:18,20600,0.7813334,1.047891,1.1345158,-0.55249053,0.5108797,9.777737,0.03574531,-0.014015236,-0.9306894,0.36378998,0.29034424,1.7005615,11,0.05596924,0.040405273,0.15483093
2023/5/9 22:18,20640,1.0249655,1.7401371,0.90231895,-0.54837275,0.58261913,9.773957,0.036934778,-0.017398974,-0.9295745,0.36636645,0.47349548,2.3248444,10.698334,0.22322083,-0.014984131,0.15802002
2023/5/9 22:18,20680,0.74024904,1.5094159,1.2343407,-0.5250717,0.7046345,9.7671995,0.03845088,-0.02445006,-0.92854744,0.36840653,0.20175171,2.1752167,10.952118,0.3435974,0.007385254,0.16868591
2023/5/9 22:18,20720,0.5995088,0.44691634,0.9097986,-0.5262424,0.82449806,9.757749,0.040497255,-0.02921051,-0.92830276,0.36845717,0.010223389,1.1995697,10.779739,0.053833008,0.012710571,-0.096572876
2023/5/9 22:18,20760,-1.3645718,-2.059412,3.0393362,-0.49949905,0.7641019,9.764069,0.037919704,-0.027076734,-0.930691,0.36282673,-1.8931732,-1.3496552,12.948883,-0.19650269,-0.1662445,-0.21162415
2023/5/9 22:18,20801,-1.3446903,-3.3257914,2.6669846,-0.4629005,0.7314312,9.7683735,0.035510227,-0.02627918,-0.9316127,0.36075786,-1.6998291,-2.5491486,12.345551,0.23706055,-0.070373535,0.18359375
2023/5/9 22:18,20840,-0.33150998,-2.9109218,0.6106272,-0.42972666,0.8410315,9.761065,0.03609279,-0.031961083,-0.9299131,0.3646058,-0.73257446,-2.0469666,10.456512,0.51190186,-0.060791016,0.394516
2023/5/9 22:18,20880,0.7228581,-1.8999841,-2.4134178,-0.40402526,1.0462255,9.742308,0.03901515,-0.041932814,-0.9268291,0.37108937,0.3358307,-0.6505432,7.18425,0.49806213,0.004196167,0.394516
2023/5/9 22:18,20920,1.0861496,-0.9280164,-2.3423796,-0.37351575,1.121118,9.735192,0.03917169,-0.045922965,-0.9252481,0.37452996,0.70513916,0.22813416,7.712158,-0.10595703,-0.014984131,0.004623413
2023/5/9 22:18,20960,0.3003835,-1.0608778,-0.3494234,-0.41745776,1.0143443,9.745112,0.03910294,-0.04010606,-0.9263496,0.37247667,-0.25254822,-0.035827637,9.582642,-0.283844,0.21191406,-0.19351196
2023/5/9 22:18,21000,-0.4023248,-0.80712944,-0.38661003,-0.50507027,0.9413586,9.748289,0.041859582,-0.03502982,-0.927704,0.36930475,-0.8858032,0.22154236,9.404266,0.016555786,0.024429321,-0.09550476
2023/5/9 22:18,21041,-0.35655376,-0.48908043,-0.8889475,-0.48256728,0.9566973,9.747935,0.0408762,-0.036236886,-0.9285402,0.3671908,-0.8828125,0.4501953,8.948776,-0.04522705,0.007385254,-0.11680603
2023/5/9 22:18,21080,-0.4502862,-0.47231364,-0.21773624,-0.5478904,0.8809761,9.75162,0.0424772,-0.031645935,-0.92952275,0.3649407,-1.003128,0.4106903,9.604782,-0.19436646,0.16931152,-0.115753174
2023/5/9 22:18,21120,-0.26309514,-0.32849503,-0.05564785,-0.5914777,0.82237506,9.75419,0.043387268,-0.028146429,-0.93042773,0.3628079,-0.8313446,0.49328613,9.761597,-0.11340332,0.046798706,-0.07739258
2023/5/9 22:18,21160,0.04231572,-0.30326247,0.109106064,-0.61330503,0.78037983,9.756293,0.04358872,-0.025836557,-0.93125665,0.3608234,-0.5865326,0.47233582,9.95134,-0.05908203,0.044677734,-0.08699036
2023/5/9 22:18,21200,-0.061751842,-0.38900346,-0.38214397,-0.62951934,0.77232355,9.755901,0.04414709,-0.025268737,-0.9321793,0.35840523,-0.6936798,0.39871216,9.406067,0.014419556,-0.003265381,-0.07206726
2023/5/9 22:18,21241,0.12802708,-0.22099459,-0.4731531,-0.61980605,0.7607488,9.757432,0.043424964,-0.02497348,-0.9328685,0.35671702,-0.4877777,0.61239624,9.307297,-0.042037964,-0.046936035,-0.05822754
2023/5/9 22:18,21280,0.63407093,0.41789246,-0.60920525,-0.5975061,0.73775417,9.760589,0.041906472,-0.024337754,-0.93342006,0.35549748,0.08683777,1.1588745,9.198364,-0.09635925,-0.05014038,-0.07420349
2023/5/9 22:18,21320,0.65156347,0.81230617,-0.098321915,-0.58088833,0.6942874,9.76478,0.04005226,-0.02248903,-0.93478775,0.3522243,0.043136597,1.5431519,9.7604065,-0.11553955,-0.040542603,-0.24250793
2023/5/9 22:18,21360,-0.030666947,0.6922525,-0.20612812,-0.5569413,0.6658029,9.768158,0.038215328,-0.02194125,-0.9369105,0.34678066,-0.65956116,1.3264618,9.592804,-0.0569458,-0.103393555,-0.3106842
2023/5/9 22:18,21400,-0.5599472,0.43876326,-0.06896782,-0.56039983,0.62120444,9.770898,0.03768462,-0.020068156,-0.93937606,0.34022012,-1.1515656,1.0541229,9.73526,-0.14749146,0.091537476,-0.36927795
2023/5/9 22:18,21440,-0.76191044,0.44370705,0.07610798,-0.598469,0.5718821,9.771651,0.03853932,-0.017296124,-0.9416341,0.3339772,-1.3682404,1.0493469,9.905853,-0.042037964,-0.04374695,-0.25315857
2023/5/9 22:18,21480,-0.013665319,1.0469788,0.28306484,-0.56864256,0.5783782,9.77305,0.03713841,-0.018271722,-0.94305223,0.33005974,-0.5715637,1.6508789,10.114151,0.06555176,-0.103393555,-0.14451599
2023/5/9 22:18,21521,0.6965393,1.9101298,-0.14236355,-0.5355521,0.62910986,9.771785,0.036313806,-0.021422189,-0.9443618,0.326195,0.13232422,2.580429,9.684982,0.119888306,-0.08102417,-0.25849915
2023/5/9 22:18,21560,0.5188856,1.925267,0.49130058,-0.49716824,0.69153714,9.769595,0.035328675,-0.025321322,-0.9465613,0.3195817,0.016799927,2.5995789,10.402649,0.19232178,-0.1257782,-0.4129486
2023/5/9 22:18,21600,-0.20278868,1.1801066,0.7783432,-0.45826194,0.81149834,9.762266,0.035108533,-0.032098453,-0.94938236,0.31049988,-0.73197937,1.8873138,10.581024,0.3190918,-0.103393555,-0.49816895
2023/5/9 22:18,21640,-1.3650537,-0.5794825,1.5558214,-0.5294081,0.8259028,9.757459,0.03908325,-0.031059617,-0.95334035,0.29774135,-2.0278473,0.10662842,11.630875,-0.3115387,0.33654785,-0.5940552
2023/5/9 22:18,21681,-1.2248666,-1.9872826,3.819785,-0.6860518,0.63233906,9.762165,0.04283633,-0.020812375,-0.9564656,0.2879331,-2.0356293,-1.5567474,13.879623,-0.47879028,0.25346375,-0.62387085
2023/5/9 22:18,21720,-2.5729868,-3.5569944,4.435832,-0.8239411,0.47071263,9.760632,0.048445117,-0.011088331,-0.9592927,0.2780065,-3.4703522,-3.1590729,14.066376,0.1902008,0.5176544,-0.05076599
2023/5/9 22:18,21760,-0.3139546,-2.9199166,-2.546153,-1.010464,0.79119796,9.722312,0.06105664,-0.023919087,-0.9559198,0.28621194,-1.2634888,-2.0709076,7.1477356,1.2501373,0.10858154,0.89411926
2023/5/9 22:18,21801,2.032454,-1.416425,-4.7960167,-0.83498603,1.1993965,9.697145,0.059225693,-0.045557585,-0.9505931,0.3013131,1.250412,-0.17230225,5.0683746,0.6035156,-0.64242554,0.78227234
2023/5/9 22:18,21840,2.5143235,-0.9710921,-1.6303406,-0.61555785,1.2342945,9.709171,0.04943281,-0.050264034,-0.9486024,0.30851814,1.7789459,0.32928467,8.36998,-0.30941772,-0.0362854,0.090911865
2023/5/9 22:18,21880,1.1473861,-0.608719,-0.432333,-0.6874766,1.0426961,9.726795,0.04982793,-0.03985773,-0.9494112,0.3074848,0.4184265,0.43762207,9.430008,-0.59277344,0.24388123,-0.14344788
2023/5/9 22:18,21920,0.82109857,-0.690462,1.3166466,-0.6999428,0.86559176,9.743265,0.04755656,-0.031146478,-0.95049495,0.30549577,0.06588745,0.1437378,11.095764,-0.16879272,-0.14175415,-0.09336853
2023/5/9 22:18,21960,-0.12921113,-0.9392289,0.05399227,-0.66439867,0.8215312,9.749566,0.04508238,-0.029631611,-0.95116585,0.3039293,-0.90914917,-0.102264404,9.687378,-0.081451416,0.026565552,0.005691528
2023/5/9 22:18,22001,-0.33587825,-0.67556113,-1.0336437,-0.6855282,0.765435,9.752668,0.045255013,-0.026538085,-0.9510082,0.304682,-1.0522003,0.07310486,8.784775,-0.2060852,0.023361206,0.093048096
2023/5/9 22:18,22040,-0.24500662,-0.46580827,-0.024092674,-0.66358125,0.6655351,9.761513,0.042176124,-0.021417983,-0.9504145,0.30736756,-0.81996155,0.18144226,9.942368,-0.24656677,-0.1257782,0.20277405
2023/5/9 22:18,22080,0.6277211,-0.061564744,-0.19705391,-0.6085714,0.60848624,9.768817,0.038770866,-0.019884288,-0.9491159,0.31189814,0.08743286,0.6100006,9.485077,-0.04096985,-0.14387512,0.28160095
2023/5/9 22:18,22120,1.3973203,0.61578923,-0.73491573,-0.51980567,0.5765593,9.775876,0.03445482,-0.0195414,-0.9481142,0.31545272,0.85357666,1.196579,9.116959,-0.20289612,-0.14707947,0.11009216
2023/5/9 22:18,22160,0.70411706,0.57753193,-0.2661667,-0.4803653,0.48838753,9.782695,0.031107748,-0.01592797,-0.9485118,0.31480795,0.17422485,1.0690918,9.57785,-0.23803711,-0.040542603,-0.05822754
2023/5/9 22:18,22201,0.075764745,0.7865698,-0.29675484,-0.46067208,0.41692904,9.786947,0.028985193,-0.012822692,-0.9490442,0.31354502,-0.39260864,1.2067566,9.552704,-0.17732239,-0.039489746,-7.02E-04
2023/5/9 22:18,22240,-0.22619194,0.8866377,-0.15107822,-0.45871973,0.357097,9.789405,0.027924256,-0.009975328,-0.94932884,0.31288254,-0.7014618,1.2247162,9.715515,-0.17092896,0.046798706,0.009948731
2023/5/9 22:18,22280,-0.5921604,0.619105,-0.11045933,-0.47810453,0.32552356,9.7895775,0.028360996,-0.008129624,-0.94926035,0.31310442,-1.0492096,0.923645,9.695755,-0.015396118,-7.63E-05,0.12181091
2023/5/9 22:18,22320,-0.4676993,0.5034704,-0.31382084,-0.48150232,0.32813174,9.789324,0.028588897,-0.008126646,-0.9484283,0.3155953,-0.8786316,0.8314667,9.569473,-0.0761261,0.06916809,0.26028442
2023/5/9 22:18,22360,0.15139496,0.809931,0.2834797,-0.5239222,0.32065412,9.787394,0.030847263,-0.007006645,-0.94650406,0.3211377,-0.35787964,1.2025757,10.13031,0.039993286,0.10858154,0.3668213
2023/5/9 22:18,22401,0.40870303,1.4311064,0.3023348,-0.54213744,0.37721494,9.784385,0.03254769,-0.009632899,-0.9439237,0.3284142,-0.05860901,1.8843231,10.218292,0.15930176,-0.003265381,0.5298004
2023/5/9 22:18,22440,0.96142316,1.9631784,0.8317766,-0.5131924,0.48586923,9.781153,0.033003233,-0.014518444,-0.94092745,0.33668324,0.43099976,2.520584,10.667801,0.24345398,-7.63E-05,0.4967804
2023/5/9 22:18,22480,0.5037084,1.3394427,1.4784136,-0.53099686,0.61496484,9.772935,0.036265433,-0.020095788,-0.9376947,0.34497774,-0.035873413,1.9381866,11.322617,0.2775421,0.07556152,0.42114258
2023/5/9 22:18,22520,1.0215642,0.42523944,2.0934267,-0.51739943,0.72434086,9.766167,0.03770739,-0.025342176,-0.93535286,0.35078615,0.5309601,1.1385193,11.94751,0.108169556,0.04360962,0.27200317
2023/5/9 22:18,22560,0.34739912,-1.7030499,2.907466,-0.56471497,0.6824691,9.766562,0.039195582,-0.022531472,-0.9357063,0.34987095,-0.2603302,-1.0779114,12.8285675,-0.21141052,0.22044373,-0.12426758
2023/5/9 22:18,22600,-0.841657,-3.4329433,2.4562683,-0.6187067,0.60649794,9.768303,0.04033954,-0.01810709,-0.9372415,0.34586596,-1.6148376,-2.926834,12.259949,0.10498047,0.026565552,-0.06674194
2023/5/9 22:18,22641,-1.217679,-3.2352982,-0.89337635,-0.6602375,0.7470694,9.755837,0.044844497,-0.024077099,-0.9366776,0.34647414,-1.8033905,-2.3594055,8.501053,0.71003723,0.18315125,0.37854004
2023/5/9 22:18,22680,-0.05824274,-1.5473508,-3.8836823,-0.6635546,0.9820912,9.734761,0.049468476,-0.03490239,-0.9334194,0.35364237,-0.61346436,-0.4338684,5.9548187,0.40644836,-0.22271729,0.46376038
2023/5/9 22:18,22720,0.5733317,-1.112596,-1.7836685,-0.5192294,1.014086,9.740247,0.043351874,-0.03881003,-0.93168104,0.3585873,0.079055786,-0.14537048,8.354416,-0.2891693,-0.17370605,0.12287903
2023/5/9 22:18,22760,-0.11228061,-1.1521204,0.5109606,-0.5557092,0.84542537,9.754324,0.041976042,-0.030098492,-0.93208086,0.358549,-0.73617554,-0.26927185,10.476868,-0.38824463,0.32164,-0.023071289
2023/5/9 22:18,22800,-0.19484627,-0.297872,-0.3569851,-0.64877844,0.7656113,9.755168,0.0449679,-0.024550362,-0.93179345,0.35935518,-0.8462982,0.50645447,9.4952545,0.004837036,0.037216187,0.11967468
2023/5/9 22:18,22841,-0.060749352,0.25884974,-0.45845413,-0.6322546,0.75173646,9.757333,0.04394792,-0.024147272,-0.93148136,0.3603164,-0.6960602,0.99546814,9.391098,-0.13897705,9.92E-04,0.011016846
2023/5/9 22:18,22880,-0.8153663,-0.14216715,-0.012028694,-0.6954648,0.6639768,9.759398,0.045318536,-0.018852472,-0.9319177,0.35933286,-1.5346375,0.5226135,9.818466,-0.25402832,0.20979309,-0.03904724
2023/5/9 22:18,22920,-1.2903657,-0.58805084,0.057264328,-0.7528808,0.5991054,9.7593355,0.04686634,-0.014694199,-0.93180835,0.359612,-2.0631561,0.004272461,9.866943,-0.04310608,0.015914917,0.14630127
2023/5/9 22:18,22960,-1.0020545,-0.49801272,-0.24880695,-0.74031234,0.59715235,9.760417,0.0462849,-0.014661464,-0.9305037,0.36305034,-1.7064209,0.137146,9.581436,-0.001556397,-0.07676697,0.3295288
2023/5/9 22:18,23001,-0.4676978,-0.15592688,-0.35233974,-0.7142406,0.59966505,9.762205,0.045185514,-0.01497778,-0.9282254,0.3689601,-1.0893097,0.48609924,9.415039,-0.024993896,-0.052261353,0.4467163
2023/5/9 22:18,23040,0.3360542,0.41273057,-0.47575283,-0.66574496,0.6002218,9.765598,0.043014605,-0.015582687,-0.92540437,0.37620962,-0.27708435,1.0804596,9.293533,-0.06227112,-0.15879822,0.427536
2023/5/9 22:18,23080,0.696353,0.67597634,0.116508484,-0.58351976,0.5811263,9.77201,0.03886729,-0.015983671,-0.92287654,0.3827959,0.1407013,1.2618256,10.026764,-0.039901733,-0.18861389,0.33166504
2023/5/9 22:18,23120,-0.012728721,0.7312814,-0.072873116,-0.4939021,0.6075307,9.775344,0.035256136,-0.018792653,-0.9209175,0.3877045,-0.5488281,1.3324585,9.756821,0.09005737,-0.1811676,0.23046875
2023/5/9 22:18,23160,-0.6447309,0.5690279,-0.5063925,-0.41926432,0.63131857,9.777322,0.032292575,-0.021271288,-0.9195545,0.39105532,-1.0917053,1.2031708,9.365967,-0.051620483,-0.20140076,0.26242065
2023/5/9 22:18,23201,-0.4732457,0.6985142,0.5453901,-0.3383821,0.6057919,9.78207,0.028091373,-0.021542853,-0.9176693,0.3957649,-0.79901123,1.3109131,10.443344,-0.079315186,-0.22377014,0.35084534
2023/5/9 22:18,23240,-0.19743209,1.0582106,0.9570465,-0.23995206,0.62008876,9.784084,0.02390921,-0.024060383,-0.9153824,0.401154,-0.43330383,1.6981659,10.822235,0.086868286,-0.2557373,0.37001038
2023/5/9 22:18,23280,0.028198004,1.4147307,0.76267815,-0.13291052,0.68881613,9.781526,0.020481393,-0.02935096,-0.91305643,0.4062598,-0.13163757,2.1003876,10.618729,0.21362305,-0.283432,0.32740784
2023/5/9 22:18,23320,-0.57431334,1.1269429,0.2181797,-0.017439177,0.8139597,9.772797,0.01786999,-0.037506215,-0.91098714,0.41033685,-0.6541748,1.9765015,10.013596,0.35850525,-0.28129578,0.2730713
2023/5/9 22:18,23360,-1.581988,0.113879144,-0.22932434,0.08395238,0.9459228,9.760562,0.016124917,-0.045714684,-0.9088838,0.41422263,-1.6549377,0.90748596,9.665237,0.20297241,-0.21525574,0.3721466
2023/5/9 22:18,23400,-1.7591387,-1.2531807,1.9003286,0.17720118,0.9612898,9.757813,0.012456584,-0.048320282,-0.90591305,0.4205134,-1.5424194,-0.46200562,11.993591,0.09751892,-0.31752014,0.54577637
2023/5/9 22:18,23441,-2.0446541,-2.3277445,1.562891,0.3152879,1.0619693,9.743879,0.008659084,-0.0569505,-0.9008423,0.43030775,-1.8776093,-1.3023682,11.272949,0.45225525,-0.2589264,0.63845825
2023/5/9 22:18,23480,-3.7451203,-3.606257,0.46448612,0.34436893,1.178232,9.729521,0.011456115,-0.062325776,-0.8936601,0.44424742,-3.3255005,-2.392929,10.190765,0.42988586,0.09899902,1.2392731
2023/5/9 22:18,23520,-1.815177,-2.2139723,-1.2007055,0.38859993,1.3297001,9.708309,0.014613358,-0.069285095,-0.87908417,0.47137782,-1.3622589,-0.82351685,8.564499,0.47781372,-0.037353516,1.8304901
2023/5/9 22:18,23560,-1.5200603,-1.7485244,-0.9002247,0.4475987,1.3736105,9.699652,0.015512444,-0.072213456,-0.86215764,0.50122726,-1.0605774,-0.39137268,8.960739,0.011230469,0.25027466,1.7505951
2023/5/9 22:18,23601,-1.8874624,-1.6945375,-0.6994791,0.37342015,1.3239259,9.709695,0.019823883,-0.06745652,-0.8447645,0.5304994,-1.4771729,-0.32073975,9.066681,-0.04096985,0.47717285,1.860321
2023/5/9 22:18,23640,-1.368345,-2.0072527,-0.06740379,0.29277307,1.2482908,9.72247,0.023534257,-0.061139874,-0.8247897,0.56163156,-1.0719604,-0.83369446,9.818466,-0.11340332,0.38023376,2.036087
2023/5/9 22:18,23680,-1.1497471,-2.416163,-0.03227043,0.21700823,1.1729373,9.733833,0.026736645,-0.054751918,-0.8022673,0.5938473,-0.94625854,-1.27005,9.700546,-0.06652832,0.49101257,2.146881
2023/5/9 22:18,23720,-0.78167677,-2.540496,0.01611805,0.14468001,1.0961207,9.744125,0.029404035,-0.04820054,-0.7769598,0.62701327,-0.5769501,-1.4567871,9.986664,-0.11766052,0.33016968,2.3023987
2023/5/9 22:18,23762,0.06509632,-2.2239585,0.6356144,0.10057958,1.0126387,9.753708,0.030326294,-0.042185046,-0.74928087,0.66021127,0.23587036,-1.1024475,10.461899,-0.10700989,0.43455505,2.2821655
2023/5/9 22:18,23800,0.007729511,-1.7016883,-0.014620781,0.010802504,0.9599056,9.759551,0.033669986,-0.03560448,-0.7179282,0.69439024,0.02519226,-0.73553467,9.856171,-0.022857666,0.34187317,2.2342224
2023/5/9 22:18,23841,0.49762577,-1.4897075,0.12937355,0.027448397,0.94892025,9.760593,0.034046676,-0.034482792,-0.69016844,0.72202444,0.5004425,-0.5284424,9.966309,0.029342651,0.101135254,2.1681824
2023/5/9 22:18,23880,0.5700165,-1.5127449,0.48209572,0.028952094,0.9249149,9.762894,0.034304284,-0.032468528,-0.66360587,0.7465898,0.6201477,-0.57751465,10.315262,-0.04310608,0.32803345,1.9956055
