Timestamp,Milliseconds,linear-x,linear-y,linear-z,gravity-x,gravity-y,gravity-z,rotation-x,rotation-y,rotation-z,rotation-w,acc-x,acc-y,acc-z,gyr-x,gyr-y,gyr-z
2022/12/14 18:45,2,-0.7985697,0.15561953,-0.19710255,-0.08549476,0.14579602,9.805193,-0.004032066,0.007616191,0.9990185,0.04344845,-0.7852478,0.10243225,9.9184265,-0.014785767,-0.0710907,0.06907654
2022/12/14 18:45,40,0.14437523,0.08723463,-0.3053217,-0.067416385,0.15116349,9.805254,-0.003119793,0.007841407,0.9991303,0.040834364,0.14369202,0.29995728,9.654465,-0.019042969,-0.0519104,0.057357788
2022/12/14 18:45,80,0.33271867,0.12888843,0.24238205,-0.058356255,0.14225441,9.805444,-0.002688352,0.007364413,0.9991982,0.0392624,0.112579346,0.2454834,10.078232,-0.003067017,0.019454956,-0.035324097
2022/12/14 18:45,121,-0.18642378,0.003087163,0.14117432,-0.05827596,0.13576704,9.805538,-0.002706471,0.00703017,0.9992512,0.03795104,-0.030471802,0.17306519,10.251816,-0.024368286,-0.01889038,0.013687134
2022/12/14 18:45,160,-0.11983889,0.101182565,-0.11787319,-0.057110295,0.14888543,9.805353,-0.00263331,0.007692378,0.9993026,0.03644406,-0.20526123,0.23591614,9.778961,0.0491333,-0.008239746,9.00E-04
2022/12/14 18:45,201,-0.32551637,-0.08034381,-0.1694603,-0.04788933,0.15174809,9.805359,-0.002174431,0.007816593,0.9993765,0.03436296,-0.27049255,0.018035889,9.931595,-0.039276123,-0.057235718,0.06907654
2022/12/14 18:45,240,0.25244159,0.087893054,0.34146976,-0.024599135,0.1557809,9.805382,-9.95E-04,0.007979467,0.9994385,0.032526646,0.18380737,0.21136475,10.186569,0.081100464,-0.01676941,-0.023605347
2022/12/14 18:45,280,-0.25948575,-0.06524865,-0.31271172,-0.020770084,0.18725376,9.80484,-7.52E-04,0.009576772,0.9994397,0.03206202,-0.39379883,0.08866882,9.592804,0.048065186,-0.023147583,-0.012954712
2022/12/14 18:45,320,0.31342715,0.094151646,-0.29046822,-0.017767258,0.19131793,9.804768,-5.99E-04,0.009778601,0.9994591,0.03139387,0.27238464,0.27062988,9.61676,-0.027557373,0.009872437,-0.03425598
2022/12/14 18:45,360,-0.22310792,-0.10356398,-0.3142252,-0.02551039,0.16734014,9.805189,-0.001033148,0.008568807,0.9994733,0.03128367,-0.22920227,0.033599854,9.65506,-0.09786987,0.024780273,-0.004425049
2022/12/14 18:45,401,0.07402098,-0.105346374,0.34009266,-0.02487199,0.12152459,9.805865,-0.00107848,0.006231965,0.99951434,0.030514067,0.14369202,0.06173706,10.290726,-0.08401489,-0.013565064,0.023269653
2022/12/14 18:45,440,0.16843204,0.1651707,0.44804096,-0.026477598,0.112037905,9.805974,-0.001176438,0.005750696,0.99952435,0.030275214,0.014419556,0.2448883,10.118332,0.045944214,-0.008239746,-0.033187866
2022/12/14 18:45,480,-0.27325863,-0.11966699,-0.26053143,-0.020898284,0.12585899,9.8058195,-8.71E-04,0.006446456,0.9995212,0.030250529,-0.29264832,0.026412964,9.737061,-0.005187988,-0.048721313,0.017944336
2022/12/14 18:45,520,0.11956882,-0.05276516,0.15684605,-0.002654683,0.12607637,9.80584,5.45E-05,0.006429432,0.9995433,0.029527655,0.12574768,0.09346008,9.988449,0.03315735,-0.01889038,0.017944336
2022/12/14 18:45,560,-0.040813778,-0.062275037,-0.49305534,-0.005455754,0.12979004,9.80579,-8.38E-05,0.006622909,0.99954706,0.029355405,-0.07058716,0.04019165,9.494644,-0.043548584,0.019454956,0.003036499
2022/12/14 18:45,600,0.10311652,0.017932296,0.27544212,-0.006022701,0.09701517,9.806169,-1.64E-04,0.004953255,0.99957216,0.028827036,0.11616516,0.09585571,10.238052,-0.07017517,-0.005050659,0.029663086
2022/12/14 18:45,641,0.09613976,0.011926025,0.059957504,-0.005927299,0.09139699,9.806223,-1.71E-04,0.004666656,0.99959356,0.028124139,0.0712738,0.13175964,9.916626,0.016113281,0.005615234,0.004089356
2022/12/14 18:45,680,0.09378445,0.1699185,-0.33212948,-0.008920726,0.08730402,9.806257,-3.32E-04,0.004462168,0.99960905,0.027598672,0.037750244,0.29336548,9.644287,-0.06591797,-7.78E-04,-0.015075684
2022/12/14 18:45,720,-0.043934636,0.023714043,0.49555874,-0.008579455,0.06558274,9.806427,-3.45E-04,0.003354615,0.99961275,0.027622145,-0.04005432,0.07849121,10.40863,-9.31E-04,2.75E-04,-0.019348145
2022/12/14 18:45,760,-0.24764064,-0.15023994,-0.07744217,-0.006889955,0.0830656,9.806295,-2.35E-04,0.004243251,0.9996143,0.027444148,-0.2896576,-0.07293701,9.828049,0.0640564,-0.014633179,0.011550903
2022/12/14 18:45,800,-0.1508268,-0.109974705,-0.03690529,9.27E-04,0.09443786,9.806195,1.74E-04,0.004812116,0.9996393,0.026421206,-0.14659119,-5.19E-04,10.004608,0.007598877,-0.043395996,0.050964355
2022/12/14 18:45,841,-0.016469732,-0.03714043,0.061843872,0.009879875,0.10082691,9.806127,6.26E-04,0.005081538,0.999679,0.024811307,0.04135132,0.067718506,9.957321,0.019302368,2.75E-04,0.06375122
2022/12/14 18:45,880,-0.041435637,-0.092657395,0.027299881,0.011421665,0.10330643,9.8061,7.05E-04,0.005252178,0.9997125,0.023382742,-0.008926392,-0.008895874,10.0112,0.007598877,-0.013565064,0.04777527
2022/12/14 18:45,920,-0.013514439,-0.16625126,0.06363678,0.015743915,0.11333406,9.805982,9.32E-04,0.005759132,0.9997329,0.022361659,0.001846314,-0.06755066,9.975876,0.0491333,-7.78E-04,0.043502808
2022/12/14 18:45,960,0.1310037,0.027462415,-0.1404562,0.01992471,0.12337445,9.805854,0.001150797,0.006267198,0.99974895,0.021481752,0.18141174,0.14971924,9.769379,0.0256958,-0.006103516,0.030731201
2022/12/14 18:45,1000,0.11438165,-0.058313504,-0.11440563,0.03547152,0.12777664,9.805753,0.00194883,0.006474376,0.99974406,0.021590788,0.08683777,0.056350708,9.841217,0.005462647,-0.009307861,-0.021469116
2022/12/14 18:45,1040,-0.12315856,-0.072822675,-0.08868885,0.030689545,0.1138566,9.805942,0.001686496,0.005770985,0.99976075,0.02102962,-0.050231934,0.006668091,9.811874,-0.04673767,-0.015701294,0.015808105
2022/12/14 18:45,1080,0.10752463,-0.059616126,0.17321682,0.039909888,0.09364686,9.806122,0.002133345,0.004731545,0.9997719,0.020716272,0.13291931,0.062927246,10.136887,-0.015838623,-0.001846314,-0.001235962
2022/12/14 18:45,1120,-0.079861596,-0.04570342,-0.055249214,0.043767326,0.09048383,9.806135,0.002326603,0.004566249,0.9997724,0.020708721,0.03475952,0.022232056,9.884308,1.37E-04,-0.014633179,-0.002304077
2022/12/14 18:45,1160,0.11145404,0.059324957,0.008342743,0.053171642,0.08668653,9.806123,0.002800457,0.004363732,0.9997793,0.02035871,0.13291931,0.14732361,9.969894,-0.020111084,-0.019958496,-0.015075684
2022/12/14 18:45,1200,0.19533254,0.058196187,0.3935337,0.065323286,0.09809069,9.805943,0.003434392,0.004930641,0.99976367,0.020893745,0.2155304,0.17964172,10.197952,0.073638916,0.006668091,-0.050231934
2022/12/14 18:45,1240,-0.1053544,-0.09735698,-0.2529707,0.064743586,0.123032786,9.805665,0.003433728,0.006201473,0.99974877,0.02126293,-0.03945923,0.06352234,9.684387,0.03741455,-0.010375977,-0.03425598
2022/12/14 18:45,1281,0.049684092,0.07541011,-0.11482334,0.06716587,0.13017322,9.805556,0.003567664,0.006561381,0.99973714,0.021675285,0.1113739,0.22393799,9.813675,-0.007324219,-0.019958496,-0.03744507
2022/12/14 18:45,1320,-0.039844215,-0.041729227,0.038908005,0.073403135,0.13412043,9.805458,0.003894047,0.006753373,0.99972147,0.02227685,0.009628296,0.09524536,9.968704,0.011856079,0.001342773,-0.052368164
2022/12/14 18:45,1360,-0.088929325,0.016790181,-0.12044239,0.06102039,0.13341679,9.805552,0.003261055,0.006732029,0.9997271,0.022131583,-0.005340576,0.17546082,9.825653,-0.006256104,0.003479004,-0.027862549
2022/12/14 18:45,1400,-0.18154854,-0.041299388,0.109396935,0.05730844,0.12812114,9.805646,0.0030648,0.006466758,0.99973303,0.021968417,-0.15916443,0.08627319,10.077042,-0.015838623,-0.01676941,-0.003356934
2022/12/14 18:45,1440,0.03476512,-0.005061731,-0.08165264,0.056166947,0.12599584,9.805679,0.002996826,0.006363187,0.99975884,0.020804893,0.095214844,0.17066956,9.883102,1.37E-04,-0.008239746,-1.68E-04
2022/12/14 18:45,1481,-0.16007528,0.035852954,-0.002466202,0.04997893,0.1263809,9.805708,0.002674781,0.006392313,0.9997818,0.019708183,-0.09811401,0.12936401,9.981277,-0.007324219,-7.78E-04,9.00E-04
2022/12/14 18:45,1520,-0.04920015,-0.003968954,0.049467087,0.04153521,0.12636817,9.805748,0.002235605,0.006403194,0.9998087,0.018345721,0.029373169,0.16288757,9.999222,0.003326416,0.002410889,0.04031372
2022/12/14 18:45,1560,-0.02222826,0.018002152,0.1345644,0.04590457,0.13765283,9.805576,0.002459219,0.006977837,0.9998289,0.01695596,0.038360596,0.13415527,10.0447235,0.03529358,0.002410889,0.020080566
2022/12/14 18:45,1601,-0.14021291,-0.0680832,-0.0390625,0.0371075,0.15139453,9.805411,0.002010148,0.0076893,0.99985087,0.015331972,-0.09751892,0.10662842,9.913635,0.03741455,-0.007171631,0.050964355
2022/12/14 18:45,1640,0.15284972,0.014143601,-0.014357567,0.042949717,0.16300254,9.805202,0.002303076,0.008280477,0.99987,0.01364063,0.22988892,0.18981934,9.87294,0.038482666,-0.003982544,0.043502808
2022/12/14 18:45,1680,-1.96E-04,-0.020052046,-0.37494564,0.050817262,0.16984661,9.805047,0.002706281,0.008624811,0.9998703,0.013330249,-0.031082153,0.12757874,9.579041,-0.03288269,-0.005050659,0.024337769
2022/12/14 18:45,1720,0.08165734,0.009521678,0.12312126,0.049205914,0.1495711,9.805387,0.002598515,0.007596177,0.99989843,0.011775333,0.19577026,0.21914673,10.054886,-0.043548584,0.003479004,0.039245605
2022/12/14 18:45,1761,-0.052622,-0.037850544,0.17236996,0.05646691,0.14033811,9.805483,0.002957614,0.00712337,0.99990976,0.010997067,-0.06997681,0.055145264,10.081223,-0.007324219,0.001342773,0.005157471
2022/12/14 18:45,1800,-0.07812761,-0.07792695,0.006397247,0.047632117,0.13550803,9.805597,0.002493014,0.006886202,0.9999296,0.009334005,0.09402466,0.11201477,9.851379,0.002258301,-0.006103516,0.046707153
2022/12/14 18:45,1840,0.15463445,0.03202264,-0.030902863,0.058932032,0.13983789,9.805476,0.003065607,0.007104023,0.99993354,0.008545345,0.15267944,0.17306519,9.885498,0.008651733,0.004547119,-0.002304077
2022/12/14 18:45,1880,-0.05386708,0.05494958,-0.1498394,0.055708155,0.1417369,9.805468,0.002893464,0.007205711,0.99994284,0.007351549,0.033569336,0.16468811,9.754425,-0.026504517,-7.78E-04,0.020080566
2022/12/14 18:45,1920,0.11747557,-0.043478362,0.13740921,0.06229335,0.12261369,9.805686,0.00321896,0.00622978,0.9999519,0.006858775,0.18858337,0.08387756,10.081833,-0.04034424,-0.003982544,0.001968384
2022/12/14 18:45,1961,-0.06907243,0.06040352,0.057439804,0.063797474,0.11830085,9.805728,0.003289697,0.006011786,0.9999578,0.006119917,0.017410278,0.12637329,10.008209,0.008651733,-0.006103516,-0.007629395
2022/12/14 18:45,2000,0.08731751,0.025002189,-0.015162468,0.06630552,0.12312574,9.805654,0.003415872,0.006258771,0.9999589,0.005606769,0.1508789,0.10243225,9.896271,0.003326416,0.001342773,9.00E-04
2022/12/14 18:45,2040,-0.12618728,-0.017932512,0.09444332,0.06257201,0.122939296,9.805679,0.003219988,0.006253149,0.99996406,0.004731529,-0.09751892,0.11380005,10.032745,0.012924194,-0.011444092,0.003036499
2022/12/14 18:45,2081,0.042233095,0.014723033,-0.002774239,0.06290112,0.13226943,9.805556,0.003234435,0.006731011,0.99996394,0.004049068,0.15267944,0.18563843,9.922607,0.03741455,-0.021026611,0.027526855
2022/12/14 18:45,2120,0.15987855,0.00645484,-0.051416397,0.08178034,0.14607576,9.805221,0.004200202,0.007430954,0.99995524,0.004087906,0.12394714,0.15510559,9.849594,0.024642944,-0.019958496,-0.017211914
2022/12/14 18:45,2160,-0.05493953,0.027590051,-0.13331318,0.085908964,0.1536769,9.805069,0.004417981,0.007846516,0.99995315,0.003550864,0.066482544,0.21076965,9.749039,0.001205444,-0.008239746,0.008361816
2022/12/14 18:45,2200,0.18266568,-0.025678605,0.13555717,0.094705395,0.14751099,9.805082,0.004814847,0.007566975,0.99995464,0.003212587,0.23109436,0.091659546,10.03334,-0.015838623,0.010940552,-0.027862549
2022/12/14 18:45,2240,-0.12035935,-0.08550672,0.039923668,0.08914521,0.14322466,9.805199,0.004562859,0.007291743,0.9999601,0.002404855,-0.03466797,0.14971924,9.943558,0.013977051,-7.78E-04,-1.68E-04
2022/12/14 18:45,2281,0.051904738,0.029232875,-0.04582596,0.08886887,0.14911786,9.805113,0.004544657,0.007595175,0.9999593,0.001766895,0.17242432,0.19999695,9.934586,0.002258301,-0.005050659,0.001968384
2022/12/14 18:45,2320,-0.08493184,-0.070878044,-0.0442667,0.088962354,0.14693798,9.805146,0.004544205,0.00748706,0.999961,0.001096576,0.001251221,0.060531616,9.876526,-0.006256104,-0.009307861,0.009414673
2022/12/14 18:45,2360,0.038529925,0.11872575,-0.064450264,0.09001558,0.14623721,9.805146,0.004591619,0.007455123,0.9999616,2.58E-04,0.12454224,0.27122498,9.874725,-0.010513306,-7.78E-04,0.019012451
2022/12/14 18:45,2400,0.09791912,-0.035368472,0.00339222,0.09789352,0.14210904,9.805132,-0.00498859,-0.007247741,-0.9999612,3.84E-04,0.20236206,0.12219238,9.931,-0.029693604,-7.78E-04,-0.015075684
2022/12/14 18:45,2440,0.01870747,-0.002529979,0.21074867,0.09568405,0.12557133,9.805379,-0.004869261,-0.006409735,-0.9999665,0.001471352,0.0892334,0.103637695,10.139282,-0.019042969,0.013061523,-0.021469116
2022/12/14 18:45,2480,-0.21304059,-0.00321272,0.19168377,0.084711574,0.13517474,9.805352,-0.004299858,-0.006904325,-0.999963,0.002808378,-0.1232605,0.12696838,9.954941,0.06510925,-0.008239746,0.009414673
2022/12/14 18:45,2520,0.14183155,0.019793421,-0.21928883,0.0866189,0.1515672,9.805096,-0.004383689,-0.007746748,-0.99995136,0.004241658,0.22091675,0.20896912,9.683197,0.015045166,-0.003982544,0.020080566
2022/12/14 18:45,2561,0.008791812,0.02445215,-0.03139019,0.09279129,0.15185508,9.805036,-0.004681883,-0.007718751,-0.9999467,0.005012646,0.10119629,0.19999695,9.979477,-0.024368286,0.006668091,0.004089356
2022/12/14 18:45,2600,-0.006020546,8.23E-04,0.04053116,0.09131605,0.1472218,9.8051195,-0.004610975,-0.00753426,-0.9999431,0.005987356,0.0892334,0.137146,9.935776,-0.003067017,0.002410889,0.011550903
2022/12/14 18:45,2640,0.07810838,-0.024865702,0.07544899,0.09285165,0.14344332,9.805161,-0.004683523,-0.007346468,-0.9999381,0.006926314,0.16285706,0.13175964,10.081833,-0.011581421,-7.78E-04,0.003036499
2022/12/14 18:45,2680,-0.079102576,-0.059625104,-0.05077076,0.0922821,0.14632766,9.805123,-0.00464535,-0.007498374,-0.999929,0.008009471,0.09341431,0.0970459,9.87294,0.029968262,2.75E-04,0.012619019
2022/12/14 18:45,2720,0.035935663,0.009080097,-0.11061287,0.097591095,0.14929672,9.805028,-0.004910329,-0.007654833,-0.9999217,0.008598,0.042541504,0.17007446,9.822052,-0.024368286,-0.005050659,-0.001235962
2022/12/14 18:45,2761,-0.010496214,0.015543684,0.101950645,0.096996576,0.1457888,9.805087,-0.004875579,-0.0074796,-0.999916,0.009396165,0.09701538,0.1545105,9.95015,-9.31E-04,0.001342773,0.015808105
2022/12/14 18:45,2800,0.08675267,-0.030570254,0.027357101,0.10230875,0.14667052,9.805019,-0.005142521,-0.007529497,-0.9999098,0.009859517,0.19396973,0.11260986,9.910645,0.010787964,0.001342773,-0.010818481
2022/12/14 18:45,2840,-0.097693615,-0.011273965,-0.0640707,0.09977154,0.14745253,9.805035,-0.005006966,-0.007571927,-0.99990237,0.010625423,-0.04244995,0.15989685,9.862762,-0.001998901,0.011993408,-0.008682251
2022/12/14 18:45,2880,-0.017086372,0.014192402,0.021834373,0.088476345,0.14334458,9.805203,-0.004424849,-0.007361411,-0.99989384,0.011772096,0.12275696,0.15090942,9.994446,-0.017974854,0.005615234,0.019012451
2022/12/14 18:45,2921,0.10082853,0.013941929,-0.046092987,0.091686614,0.14101416,9.805207,-0.004585642,-0.007247231,-0.9998868,0.012362473,0.17303467,0.12876892,9.795715,-0.003067017,0.011993408,-0.007629395
2022/12/14 18:45,2960,-0.09299879,-0.005366564,-0.18911839,0.08447458,0.12793851,9.805452,-0.004218652,-0.006580817,-0.9998783,0.013503755,-0.030471802,0.07789612,9.758011,-0.061645508,0.009872437,0.003036499
2022/12/14 18:45,3000,0.14480239,0.051034875,0.25009918,0.08202039,0.10256078,9.805771,-0.004106436,-0.005288784,-0.9998745,0.014361627,0.20115662,0.14852905,10.206329,-0.043548584,0.011993408,-0.002304077
2022/12/14 18:45,3040,-0.13387623,0.013398543,0.30033398,0.07897437,0.10259422,9.805795,-0.003946983,-0.005291342,-0.99986356,0.01514332,-0.020309448,0.07849121,10.179993,0.03741455,0.003479004,-0.004425049
2022/12/14 18:45,3080,-0.14345506,-0.0722297,-0.20700455,0.07069077,0.11942105,9.805668,-0.003505902,-0.006146124,-0.99984556,0.016085818,-0.026290894,0.1084137,9.629318,0.040618896,0.002410889,0.017944336
2022/12/14 18:45,3120,0.09548279,0.008701347,-0.001091957,0.070118695,0.11685468,9.805703,-0.003473421,-0.006017945,-0.99983156,0.016986234,0.17063904,0.09465027,10.063278,-0.041412354,2.75E-04,0.012619019
2022/12/14 18:45,3160,-0.05880133,-0.006803192,0.10412216,0.0701676,0.113371305,9.805743,-0.003476025,-0.005842128,-0.99982405,0.017483104,0.001846314,0.09585571,9.941772,0.027832031,0.004547119,0.008361816
2022/12/14 18:45,3200,-0.01479017,-0.002363995,-0.2367506,0.06429015,0.11944063,9.805713,-0.003166669,-0.006148529,-0.9998107,0.018185792,0.059310913,0.1084137,9.6736145,-0.010513306,0.009872437,0.015808105
2022/12/14 18:45,3240,0.07468581,0.025551528,0.051704407,0.06304746,0.11366439,9.805789,-0.003064394,-0.005844471,-0.99980104,0.018822184,0.20355225,0.1874237,9.993835,-0.001998901,0.004547119,0.017944336
2022/12/14 18:45,3280,0.06379355,-0.021343783,0.020700455,0.0638288,0.11696008,9.805745,-0.003141065,-0.006023929,-0.99979806,0.018913252,0.068878174,0.06890869,9.969894,0.005462647,0.020523071,0.004089356
2022/12/14 18:45,3320,0.12402564,-0.11174703,-0.20262718,0.061162833,0.103738464,9.805911,-0.003017492,-0.005347554,-0.99980086,0.018989148,0.26759338,0.020431519,9.7999115,-0.05845642,0.005615234,0.020080566
2022/12/14 18:45,3361,-0.11838424,-0.03393369,0.36156845,0.06578679,0.08851848,9.806029,-0.003271036,-0.004573925,-0.99981654,0.01831185,-0.11248779,0.058135986,10.256607,0.019302368,0.024780273,-0.0438385
2022/12/14 18:45,3400,-0.13692364,0.11073414,-0.1284523,0.047169596,0.10314948,9.805994,-0.002305395,-0.005303674,-0.9998054,0.018861182,-0.017318726,0.20059204,9.79393,0.004394531,-0.008239746,0.022201538
2022/12/14 18:45,3440,0.09651673,-0.024967536,-0.076657295,0.052215252,0.102183655,9.805979,-0.002563249,-0.005259436,-0.99980396,0.018916622,0.12454224,0.101242065,9.898071,-0.017974854,0.010940552,-0.010818481
2022/12/14 18:45,3480,-0.048787463,-0.08093611,-0.014321327,0.04647768,0.08862252,9.806139,-0.00228468,-0.004562145,-0.99981153,0.018730832,0.004837036,0.05934143,9.9711,-0.02330017,0.009872437,-0.001235962
2022/12/14 18:45,3521,0.036181834,0.0526992,0.12825489,0.04675435,0.0830806,9.806188,-0.002304415,-0.004279706,-0.9998142,0.01865112,0.07965088,0.15690613,10.035141,-0.005187988,0.004547119,-0.004425049
2022/12/14 18:45,3560,-0.043875538,-0.02297663,0.01921463,0.041765172,0.08503409,9.806193,-0.002068541,-0.004362664,-0.99981225,0.018765394,-0.002349854,0.086868286,10.011795,0.004394531,0.001342773,-0.005493164
2022/12/14 18:45,3600,0.012305286,-0.027476095,-0.102394104,0.040813293,0.090827696,9.806145,-0.001992688,-0.004669631,-0.9998071,0.018972704,0.085632324,0.10003662,9.749634,0.019302368,0.002410889,0.001968384
2022/12/14 18:45,3640,-0.048819274,-0.06006951,0.08901787,0.041461334,0.084533185,9.806198,-0.002030453,-0.004350008,-0.99980253,0.01928463,-0.036468506,0.009063721,9.999832,-0.027557373,-0.002914429,-0.008682251
2022/12/14 18:45,3681,-0.032047834,-0.058118857,0.101216316,0.03905332,0.07985743,9.806248,-0.001911573,-0.004109616,-0.9998004,0.019460104,0.0491333,0.016235352,10.011795,0.022506714,-0.010375977,0.01687622
2022/12/14 18:45,3720,0.14507425,0.017919458,-0.124435425,0.04798343,0.08373232,9.806175,-0.002364018,-0.004315434,-0.99980325,0.019214965,0.186203,0.11680603,9.883713,-9.31E-04,-0.002914429,-0.011886597
2022/12/14 18:45,3760,-0.08481494,-0.058457114,0.07982445,0.050662335,0.0858325,9.806144,-0.002498762,-0.004424989,-0.9998035,0.019161401,0.038360596,0.033599854,9.950745,0.018249512,0.002410889,-0.019348145
2022/12/14 18:45,3800,-0.03900944,-0.04898017,-0.024374008,0.052431386,0.08859686,9.80611,-0.002586866,-0.004567288,-0.9998052,0.019025434,0.012619019,0.003067017,9.890289,0.006530762,-0.015701294,-0.017211914
2022/12/14 18:45,3840,-0.043925732,-0.03212527,-0.07833195,0.05227926,0.08645177,9.806129,-0.002581256,-0.00445775,-0.999806,0.019010847,-0.024490356,0.0856781,9.829834,0.002258301,-0.009307861,-1.68E-04
2022/12/14 18:45,3880,0.005980611,0.044837125,-0.001424789,0.054431178,0.08466774,9.806134,-0.002692845,-0.00436879,-0.9998068,0.018973788,0.06289673,0.11500549,9.969894,-0.010513306,-0.008239746,-0.005493164
2022/12/14 18:46,3921,-0.030545905,0.052215874,0.103144646,0.055799995,0.08904305,9.8060875,-0.002758438,-0.004593135,-0.9998058,0.018964214,-0.002944946,0.13415527,9.994446,0.015045166,-7.78E-04,-0.003356934
2022/12/14 18:46,3960,0.037775077,-0.039657578,-0.07252407,0.05445997,0.096548915,9.806024,-0.002681783,-0.004975066,-0.9998,0.019183505,0.15028381,0.07130432,9.844208,0.016113281,0.005615234,-0.005493164
2022/12/14 18:46,4000,-1.75E-04,0.022702225,-0.04173088,0.058156718,0.09501973,9.806017,-0.002871366,-0.004900942,-0.9997984,0.019257585,0.06588745,0.117996216,9.901062,-0.022232056,-7.78E-04,-0.022537231
2022/12/14 18:46,4041,-0.08857392,-0.013023652,0.14121437,0.05528519,0.09065382,9.806076,-0.002727553,-0.004676553,-0.99979275,0.019623853,-0.031082153,0.053955078,10.094391,0.007598877,0.005615234,-0.02999878
2022/12/14 18:46,4080,-0.09943478,-0.01958263,0.020710945,0.044999886,0.10029939,9.806034,-0.002190641,-0.005159221,-0.99978036,0.020196058,-0.038253784,0.09524536,9.923218,0.03955078,-0.001846314,0.01473999
2022/12/14 18:46,4120,0.13549292,-0.020246401,-0.08852959,0.045316216,0.11015126,9.805926,-0.002195653,-0.005662152,-0.9997741,0.020368101,0.16703796,0.09465027,9.895081,0.021438599,0.002410889,0.011550903
2022/12/14 18:46,4160,0.07162912,-7.56E-04,-0.021874428,0.051661752,0.113134064,9.805862,-0.002516236,-0.005820714,-0.99977314,0.020332625,0.061691284,0.117996216,9.938171,-9.31E-04,0.004547119,-0.014022827
2022/12/14 18:46,4200,-0.030515268,-0.005736373,-0.07173729,0.04615531,0.1139238,9.80588,-0.002231981,-0.005856305,-0.999764,0.02080012,0.042541504,0.12817383,9.83522,0.001205444,0.006668091,-0.002304077
2022/12/14 18:46,4240,-0.06181486,0.004452899,0.033317566,0.042197697,0.10834996,9.805961,-0.002034119,-0.005568706,-0.9997584,0.021163948,-0.001754761,0.10722351,9.972885,-0.019042969,0.006668091,0.005157471
2022/12/14 18:46,4281,0.06981054,-0.052747086,0.1286211,0.042305917,0.10714585,9.805973,-0.002039704,-0.005507897,-0.999754,0.021387374,0.13531494,0.06951904,10.053696,0.026763916,0.001342773,0.007293701
2022/12/14 18:46,4320,-0.018786367,-0.03322254,-0.064956665,0.044349544,0.11051032,9.805927,-0.002139331,-0.005681967,-0.9997495,0.021542257,0.04374695,0.074905396,9.876526,1.37E-04,-0.002914429,-0.002304077
2022/12/14 18:46,4360,-0.020314138,0.05140078,0.004472733,0.043142285,0.11271518,9.805908,-0.002073306,-0.005793775,-0.99974126,0.021898488,0.018600464,0.16407776,9.93219,0.009719849,0.003479004,0.009414673
2022/12/14 18:46,4400,0.0490899,0.035149604,-0.013196945,0.046718124,0.12048271,9.8057995,-0.002245668,-0.006194185,-0.99973404,0.022099871,0.1287384,0.13056946,9.907654,0.012924194,-0.003982544,-1.68E-04
2022/12/14 18:46,4440,-0.004835546,0.002154216,-0.005419731,0.050925758,0.12237333,9.805755,-0.00245719,-0.006295631,-0.99973,0.022232017,0.05331421,0.120391846,9.980072,-0.009460449,-0.001846314,-0.008682251
2022/12/14 18:46,4480,0.026999462,-0.021322519,0.06488991,0.050478555,0.124479696,9.80573,-0.002429177,-0.006403574,-0.99971944,0.022674035,0.15626526,0.12338257,9.9579315,0.022506714,-0.001846314,-0.005493164
2022/12/14 18:46,4520,0.032121923,-0.014520541,-0.051487923,0.055190332,0.13078462,9.805623,-0.002661553,-0.006730631,-0.999715,0.022751136,0.06947327,0.096450806,9.929794,0.007598877,-0.007171631,-0.021469116
2022/12/14 18:46,4560,-0.03507674,-0.001386032,0.033738136,0.05269214,0.1331891,9.805604,-0.002528623,-0.006851337,-0.9997051,0.023159634,0.07846069,0.14013672,10.017181,0.009719849,-7.78E-04,-0.003356934
2022/12/14 18:46,4600,0.02258594,0.007684842,-0.003611565,0.055851974,0.14458224,9.805426,-0.002674567,-0.007436455,-0.9996953,0.023385655,0.04194641,0.16169739,9.919022,0.032089233,-0.007171631,0.004089356
2022/12/14 18:46,4640,0.026241753,-0.025942862,-0.17601776,0.060708992,0.1501467,9.805313,-0.002899113,-0.007754325,-0.99968886,0.023528418,0.095214844,0.120391846,9.811874,-0.006256104,0.001342773,-0.003356934
2022/12/14 18:46,4680,0.005296025,0.03634903,0.119330406,0.06042692,0.14240289,9.805429,-0.002907032,-0.007332143,-0.9996847,0.02384023,0.015014648,0.16407776,10.089615,-0.014785767,-0.002914429,-0.002304077
2022/12/14 18:46,4721,-0.018822193,0.040833354,0.011224747,0.062010076,0.15200137,9.805276,-0.002974147,-0.007824093,-0.99967486,0.02408644,0.017410278,0.18682861,9.91124,0.0448761,-0.013565064,0.003036499
2022/12/14 18:46,4760,-0.061408468,-0.005380541,-0.19194412,0.060707975,0.15883873,9.805176,-0.002895034,-0.008172577,-0.9996593,0.024618575,0.04434204,0.12757874,9.777756,-0.022232056,0.002410889,0.012619019
2022/12/14 18:46,4800,0.0627311,-0.003152832,0.15162945,0.06343738,0.14835161,9.805323,-0.003045523,-0.007642136,-0.9996573,0.024852583,0.12275696,0.18563843,10.095001,-0.008392334,-0.007171631,-1.68E-04
2022/12/14 18:46,4840,-0.14275627,-0.01520431,0.03847313,0.06354016,0.15478837,9.8052225,-0.003039603,-0.007971528,-0.9996453,0.025230048,-0.10169983,0.15151978,9.95134,0.038482666,-0.010375977,0.010482788
2022/12/14 18:46,4881,-0.018780477,0.006786153,-0.21901608,0.06212075,0.16613318,9.805046,-0.002943726,-0.008556654,-0.9996275,0.025748776,0.09701538,0.17185974,9.705933,0.003326416,0.002410889,0.021133423
2022/12/14 18:46,4920,-0.015753243,0.038595363,0.1428976,0.059679095,0.16036348,9.805158,-0.002827339,-0.00825359,-0.99961776,0.026234452,0.07008362,0.15510559,10.107559,-0.008392334,0.010940552,0.010482788
2022/12/14 18:46,4960,0.03564772,-0.034116626,-0.096655846,0.058580752,0.16748779,9.805044,-0.002757454,-0.008616678,-0.9996014,0.026742646,0.09162903,0.18263245,9.810089,0.017181396,-0.014633179,0.003036499
2022/12/14 18:46,5000,-0.009909689,-0.02815491,-0.04554844,0.06615288,0.158805,9.805141,-0.003156482,-0.008183941,-0.9996079,0.026590282,0.11376953,0.14552307,9.850784,-0.030761719,-0.007171631,-0.008682251
2022/12/14 18:46,5041,-0.048410885,0.04942426,0.03241539,0.06833781,0.14563143,9.80533,-0.003287831,-0.00751448,-0.99962026,0.026306061,0.006637573,0.1724701,9.960922,-0.04248047,0.014129639,-0.017211914
2022/12/14 18:46,5080,0.020484142,0.037102968,0.14081478,0.05461953,0.13963199,9.805504,-0.002594767,-0.007190935,-0.9996178,0.026567528,0.05810547,0.19940186,10.078827,0.006530762,0.023712158,0.011550903
2022/12/14 18:46,5120,-0.06738676,-0.024778485,-0.007105827,0.04855567,0.14657246,9.805434,-0.00227637,-0.007536463,-0.99961627,0.02655803,0.001846314,0.09284973,9.867538,0.017181396,0.011993408,0.008361816
2022/12/14 18:46,5160,0.0677213,0.043052197,0.05834961,0.044615168,0.14558907,9.805468,-0.002073071,-0.007482048,-0.99960357,0.027063636,0.13172913,0.16348267,10.021378,-0.008392334,0.006668091,0.021133423
2022/12/14 18:46,5200,0.04875116,0.058215246,-0.04044628,0.04470875,0.15125416,9.805381,-0.00206965,-0.007771038,-0.99960005,0.02711223,0.10719299,0.2059784,9.901657,0.008651733,0.013061523,-1.68E-04
2022/12/14 18:46,5240,-0.064808704,-0.11309701,-0.06750584,0.039832007,0.14818348,9.8054495,-0.001823202,-0.007608283,-0.99959415,0.02739182,0.012619019,0.04916382,9.884903,-0.010513306,0.009872437,0.006225586
2022/12/14 18:46,5281,0.15877907,0.02743408,-0.001919746,0.03976314,0.13725133,9.805609,-0.001821602,-0.007119789,-0.9995992,0.027338492,0.16584778,0.17964172,9.913635,-0.033950806,0.01838684,-0.021469116
2022/12/14 18:46,5320,-0.06254243,-0.02961953,0.011800766,0.03532091,0.1265388,9.80577,-0.001623439,-0.006498753,-0.9996021,0.027400983,0.057510376,0.15330505,9.887299,-0.024368286,0.006668091,-0.010818481
2022/12/14 18:46,5360,0.101310566,-0.027413525,-0.02974987,0.042497072,0.115048185,9.805884,-0.002009027,-0.005921826,-0.9996223,0.026761902,0.12394714,0.08268738,9.893875,-0.038208008,0.005615234,-0.04171753
2022/12/14 18:46,5400,-0.09117694,-0.06674929,0.08201027,0.037499562,0.0985589,9.806083,-0.001778239,-0.005074044,-0.9996349,0.026479155,-0.03765869,0.024017334,10.027954,-0.016906738,0.002410889,-0.021469116
2022/12/14 18:46,5441,-0.028952468,0.027127586,-0.042668343,0.03427906,0.08890317,9.806188,-0.001628745,-0.004576968,-0.99964684,0.026125453,0.001846314,0.12817383,9.901657,-0.036087036,-0.006103516,-0.005493164
2022/12/14 18:46,5480,0.005345166,-0.014959753,0.20655346,0.03731954,0.082200356,9.806233,-0.001795907,-0.004237996,-0.9996679,0.02535548,0.043136597,0.053359985,10.124329,0.016113281,-0.008239746,-0.005493164
2022/12/14 18:46,5520,0.003770016,0.01283773,-0.24862385,0.03827628,0.09051394,9.806158,-0.001836337,-0.004662036,-0.9996789,0.024838839,0.032974243,0.11680603,9.602386,0.003326416,0.003479004,-0.006561279
2022/12/14 18:46,5561,-0.04404777,0.05965992,0.15338898,0.03766239,0.07954228,9.806255,-0.001820277,-0.004101421,-0.99968946,0.024512475,-0.0256958,0.0683136,10.150055,-0.047805786,0.005615234,-0.025726318
2022/12/14 18:46,5600,-0.14731565,-0.088685244,0.20235729,0.028173616,0.070755884,9.8063545,-0.001347696,-0.003641666,-0.9996926,0.024486791,-0.07058716,-0.021469116,10.060883,0.024642944,-0.011444092,0.011550903
2022/12/14 18:46,5640,0.0148641,0.01596322,-0.29146385,0.028063366,0.079446584,9.806289,-0.001331261,-0.004084498,-0.9996911,0.024478795,0.042541504,0.10722351,9.629318,-0.005187988,0.004547119,0.009414673
2022/12/14 18:46,5680,-0.023659714,0.013389468,0.01638794,0.021843137,0.064486384,9.806414,-0.001032735,-0.003314232,-0.9996933,0.024522165,-0.010726929,0.050964355,10.061478,-0.04673767,0.013061523,0.008361816
2022/12/14 18:46,5720,-0.045879822,-0.017407674,0.18655586,0.018442266,0.059791222,9.806451,-8.65E-04,-0.003070808,-0.99969,0.024692455,-0.002349854,0.04496765,10.093796,0.03529358,-0.001846314,0.017944336
2022/12/14 18:46,5761,0.01653799,0.023460008,-0.14305115,0.020060584,0.07765014,9.806322,-9.24E-04,-0.003983313,-0.999682,0.024882382,0.06289673,0.06352234,9.765198,0.027832031,-0.003982544,0.017944336
2022/12/14 18:46,5800,0.052842416,0.053031765,-0.29910183,0.023844197,0.07753167,9.806314,-0.001117291,-0.00398199,-0.99968374,0.024806261,0.07307434,0.09284973,9.663437,-0.041412354,0.004547119,0.005157471
2022/12/14 18:46,5840,-0.05936475,0.006785188,0.2129488,0.023213163,0.06021177,9.8064375,-0.001108489,-0.003097856,-0.99969846,0.024335336,-0.041259766,0.041381836,10.144669,-0.02116394,0.001342773,-0.002304077
2022/12/14 18:46,5880,-0.01623454,-0.031342663,0.13136196,0.024934985,0.05996142,9.806436,-0.001196982,-0.003087069,-0.9997017,0.024199372,0.029968262,-0.01727295,10.01239,0.03315735,-0.007171631,0.011550903
2022/12/14 18:46,5921,0.094794385,-0.003970064,-0.19356728,0.031455923,0.066664934,9.806373,-0.001522904,-0.003436004,-0.9997127,0.023672659,0.14430237,0.059936523,9.751434,-0.011581421,2.75E-04,-0.006561279
2022/12/14 18:46,5960,-0.062254272,-0.051705778,0.2386074,0.035307325,0.065410845,9.806369,-0.001723886,-0.00337512,-0.9997343,0.022738222,-0.038253784,-0.005905151,10.14946,0.036346436,-0.002914429,-0.008682251
2022/12/14 18:46,6000,0.018530611,-0.009474777,-0.09743214,0.037205104,0.07844384,9.806266,-0.001807423,-0.004040809,-0.99974227,0.022266645,0.06109619,0.0569458,9.7921295,0.02357483,-0.010375977,9.00E-04
2022/12/14 18:46,6040,0.085815355,0.006843612,-0.060879707,0.04565976,0.07640342,9.806246,-0.002242805,-0.003945209,-0.9997535,0.021734545,0.12036133,0.046173096,9.894485,-0.019042969,-0.008239746,-0.010818481
2022/12/14 18:46,6080,0.008183371,0.020723425,0.104273796,0.050489,0.07271726,9.806251,-0.002494971,-0.003761392,-0.9997645,0.021226052,0.003036499,0.06712341,9.992645,0.002258301,-0.011444092,-0.017211914
2022/12/14 18:46,6120,-7.04E-04,-0.018958583,0.07051945,0.054227926,0.07462826,9.806216,-0.002685549,-0.003861429,-0.99977475,0.020694684,0.026977539,0.09225464,9.945953,0.012924194,-0.012496948,-0.005493164
2022/12/14 18:46,6161,0.100843,-0.019920625,0.036852837,0.061511848,0.08001238,9.80613,-0.003053636,-0.004141768,-0.9997847,0.020100784,0.1293335,0.06352234,9.968109,0.02357483,-0.010375977,-0.027862549
2022/12/14 18:46,6200,-0.13489094,0.00427898,-0.14381027,0.061145347,0.08658397,9.806078,-0.003028705,-0.004476066,-0.99978554,0.019992925,-0.07597351,0.10542297,9.800507,0.004394531,-0.002914429,-0.017211914
2022/12/14 18:46,6240,-0.04262677,0.032499224,0.020050049,0.055183835,0.08153547,9.806156,-0.002729552,-0.004212885,-0.9997856,0.020087443,0.012619019,0.11380005,10.047104,-0.038208008,-7.78E-04,-0.001235962
2022/12/14 18:46,6280,-0.019662924,-0.06086216,0.17568779,0.052305806,0.076417565,9.806213,-0.002570577,-0.003932675,-0.9997886,0.02001692,0.10119629,-0.007705689,10.053101,0.020370483,-0.006103516,0.01473999
2022/12/14 18:46,6321,0.056356385,0.0782812,-0.23347664,0.057300657,0.08207563,9.806139,-0.002838564,-0.004241482,-0.999793,0.01969696,0.091033936,0.18263245,9.695755,-0.005187988,0.001342773,-0.003356934
2022/12/14 18:46,6360,-0.07494114,0.031529516,0.15603352,0.05307667,0.07859287,9.806191,-0.002626441,-0.004059884,-0.9997929,0.019768924,0.016799927,0.113204956,10.13031,-0.008392334,2.75E-04,0.009414673
2022/12/14 18:46,6400,0.080417514,-0.04703279,0.03712368,0.059461087,0.087208025,9.806082,-0.002944746,-0.004504505,-0.99979675,0.019430432,0.0778656,0.031204224,9.927399,0.043807983,-0.001846314,-0.002304077
2022/12/14 18:46,6440,-0.017682299,-0.022576146,-0.15685081,0.058878195,0.09388911,9.806024,-0.002908816,-0.004844277,-0.99979687,0.019348033,0.04673767,0.091659546,9.801102,-0.004119873,0.01626587,-0.003356934
2022/12/14 18:46,6481,0.13230932,0.06037151,0.016109467,0.056483574,0.08883248,9.806086,-0.002791875,-0.004584046,-0.999799,0.01931628,0.15208435,0.14074707,9.969894,-0.02330017,0.002410889,-0.015075684
2022/12/14 18:46,6520,-0.06448816,-0.077325374,0.0821619,0.060450725,0.08291359,9.806113,-0.003000889,-0.004285556,-0.999804,0.0190941,-0.024490356,0.004867554,9.99205,0.008651733,-0.003982544,-0.007629395
2022/12/14 18:46,6560,-0.01333566,0.001713738,-0.09691143,0.056063883,0.08349675,9.806134,-0.002776359,-0.004311224,-0.99980307,0.019171042,0.05570984,0.10423279,9.833435,-0.003067017,0.001342773,0.009414673
2022/12/14 18:46,6600,0.1094459,-0.044858508,0.02999878,0.058972757,0.07513897,9.806185,-0.002933556,-0.003887445,-0.999808,0.018979415,0.18499756,0.059936523,10.046509,-0.03288269,0.001342773,-0.014022827
2022/12/14 18:46,6640,-0.10284582,-0.04860407,0.22317886,0.05898675,0.0713469,9.806213,-0.00289405,-0.003814047,-0.99981016,0.018887376,-0.07476807,0.1191864,10.102173,0.0448761,-0.006103516,-0.004425049
2022/12/14 18:46,6681,0.05940142,0.081587434,-0.287405,0.06046942,0.09150229,9.806037,-0.002995295,-0.004722264,-0.99980927,0.01871109,0.11616516,0.16169739,9.65387,0.004394531,-0.002914429,-1.68E-04
2022/12/14 18:46,6720,0.028757825,-0.07119494,0.096325874,0.063790195,0.08359286,9.806086,-0.003173072,-0.004321526,-0.9998146,0.018491516,0.04374695,-0.019073486,10.103973,-0.013717651,0.006668091,-0.020401001
2022/12/14 18:46,6760,-0.099503726,-0.011133246,-0.01115036,0.055137634,0.08136628,9.806158,-0.002732744,-0.004200721,-0.9998105,0.018808754,-0.008926392,0.09524536,9.882507,0.007598877,2.75E-04,0.006225586
2022/12/14 18:46,6800,0.09386368,0.062174708,0.05513954,0.056271542,0.08640264,9.8061075,-0.002786344,-0.004458166,-0.9998119,0.018669104,0.146698,0.15211487,10.010605,0.010787964,-0.002914429,0.010482788
2022/12/14 18:46,6840,-0.12274279,-0.08491969,-0.048485756,0.05887595,0.09040279,9.806057,-0.002916275,-0.004663964,-0.99981445,0.018461592,-0.03286743,-0.018478394,9.867538,0.006530762,-0.008239746,0.005157471
2022/12/14 18:46,6880,0.13537799,0.04071696,0.025961876,0.056391243,0.08694129,9.806102,-0.002792042,-0.004485672,-0.9998122,0.018645024,0.22151184,0.14672852,9.99205,-0.009460449,0.014129639,0.006225586
2022/12/14 18:46,6921,-0.10951729,-0.014236048,0.113544464,0.055545297,0.09031863,9.806077,-0.002745369,-0.00465724,-0.99981016,0.018717911,-0.05860901,0.072509766,10.107559,0.019302368,0.007736206,-0.007629395
2022/12/14 18:46,6960,0.002219316,-0.050138287,-0.00124073,0.049214154,0.1002905,9.806014,-0.002411801,-0.00516016,-0.9998038,0.018971378,0.10418701,0.04736328,9.900467,0.04701233,-0.008239746,0.01687622
2022/12/14 18:46,7000,-0.042088367,0.034877993,-0.28860664,0.051752295,0.11524254,9.805837,-0.002521848,-0.005889215,-0.9998006,0.018912168,0.07307434,0.17306519,9.690979,1.37E-04,0.001342773,0.012619019
2022/12/14 18:46,7040,-0.007383034,0.04853327,0.11703968,0.04725319,0.10882039,9.805932,-0.002301776,-0.005593855,-0.9997955,0.019295732,0.044937134,0.1251831,10.062668,-0.028625488,0.003479004,0.022201538
2022/12/14 18:46,7080,0.001889158,-0.005712435,0.17293835,0.051918894,0.10845869,9.805912,-0.002540257,-0.005579882,-0.999796,0.019245613,0.05630493,0.08148193,10.084824,0.034225464,-0.005050659,0.005157471
2022/12/14 18:46,7121,-0.061617516,0.013906308,-0.36181355,0.048459433,0.121957794,9.805772,-0.002347987,-0.006265661,-0.99978405,0.019672794,-0.012527466,0.11380005,9.560486,0.002258301,0.006668091,0.01687622
2022/12/14 18:46,7160,0.061895378,0.04599917,0.027420998,0.04742677,0.11257698,9.805889,-0.002302682,-0.005787224,-0.99978,0.02002975,0.05810547,0.13056946,9.985458,-0.045669556,0.004547119,0.007293701
2022/12/14 18:46,7200,-0.17224982,-0.001256481,0.20271015,0.043637358,0.10824152,9.805956,-0.002110685,-0.005563572,-0.9997698,0.020613957,-0.11427307,0.08508301,10.10817,0.020370483,-0.010375977,0.02645874
2022/12/14 18:46,7240,0.012369238,-0.004214652,-0.11921978,0.03864598,0.1197192,9.805843,-0.001838183,-0.006145227,-0.9997463,0.021590648,0.076660156,0.09825134,9.788544,0.031021118,0.004547119,0.02645874
2022/12/14 18:46,7280,0.03433678,0.024463326,0.046221733,0.04237662,0.12338828,9.805781,-0.002021267,-0.006337349,-0.9997343,0.022071768,0.064697266,0.18144226,9.967499,0.006530762,0.004547119,0.020080566
2022/12/14 18:46,7321,-0.03765146,0.024602354,0.04985714,0.039293226,0.12972073,9.805714,-0.001852088,-0.006658043,-0.99971604,0.02280469,0.019805908,0.10902405,9.956131,0.013977051,0.007736206,0.023269653
2022/12/14 18:46,7360,-0.038912255,-0.04918702,-0.11944485,0.035307404,0.13185024,9.805699,-0.001642688,-0.006762873,-0.99970293,0.023359489,0.059906006,0.09524536,9.805298,-0.006256104,2.75E-04,0.030731201
2022/12/14 18:46,7400,0.2351549,0.006230034,0.079078674,0.044350427,0.12229987,9.805787,-0.002116194,-0.006286419,-0.9997095,0.02317109,0.25382996,0.13595581,10.045914,-0.02330017,0.007736206,9.00E-04
2022/12/14 18:46,7440,-0.04195373,-0.001586452,0.07535648,0.043239824,0.12102069,9.805807,-0.002059161,-0.00622054,-0.9997028,0.023481665,-0.011917114,0.103027344,9.969894,0.007598877,0.003479004,-0.002304077
2022/12/14 18:46,7480,0.06667244,-0.004401863,0.02299881,0.043832853,0.124357335,9.805763,-0.002084266,-0.006391704,-0.9996975,0.023658492,0.13172913,0.13894653,9.93338,0.017181396,-0.007171631,0.009414673
2022/12/14 18:46,7521,0.045739748,-0.020331845,-0.09706402,0.05241372,0.12861535,9.805667,-0.002517582,-0.006618711,-0.99969876,0.023498803,0.059906006,0.1257782,9.868744,-0.012649536,-0.003982544,-0.022537231
2022/12/14 18:46,7560,-0.05985498,0.01199206,0.06352806,0.04911897,0.12241993,9.805763,-0.002355819,-0.006299412,-0.9996966,0.023695275,-0.004745483,0.13894653,10.035141,-0.009460449,-0.005050659,-0.01828003
2022/12/14 18:46,7600,-0.06925169,0.017599538,0.08912754,0.049176253,0.12829114,9.805688,-0.002351976,-0.006598649,-0.99969584,0.023645774,-0.030471802,0.1191864,9.974091,0.029968262,-0.006103516,-0.010818481
2022/12/14 18:46,7641,-0.07890285,-0.040558025,-0.05256653,0.046908367,0.13729285,9.805577,-0.00222585,-0.007054675,-0.9996941,0.023600254,0.07606506,0.13175964,9.887299,0.022506714,-0.006103516,0.001968384
2022/12/14 18:46,7680,-0.007505897,-0.0137586,-0.10265446,0.048702687,0.14037772,9.805524,-0.002314945,-0.00721366,-0.99969715,0.023414275,0.08503723,0.14971924,9.856766,-0.009460449,0.001342773,-0.005493164
2022/12/14 18:46,7720,-0.06686128,-0.053029627,0.14664173,0.046569627,0.13342421,9.805632,-0.002215575,-0.006856307,-0.9997035,0.023259157,-0.035873413,0.0856781,10.083618,-0.004119873,-0.012496948,0.008361816
2022/12/14 18:46,7760,0.06337832,0.05203265,-0.12396431,0.051519424,0.14134376,9.805496,-0.002460871,-0.007265085,-0.9997076,0.022932736,0.13711548,0.21376038,9.758011,0.017181396,-0.006103516,0.004089356
2022/12/14 18:46,7800,-0.1247782,-0.1146,-0.043269157,0.049708813,0.13872527,9.805543,-0.002373133,-0.007128986,-0.99971354,0.022722833,-0.10169983,0.035995483,9.858566,-0.020111084,0.008804321,9.00E-04
2022/12/14 18:46,7841,0.030254576,0.022409797,0.08646488,0.045244686,0.12899224,9.805697,-0.002156963,-0.006627618,-0.9997179,0.02270536,0.03656006,0.15330505,10.061478,-0.006256104,-0.005050659,0.007293701
2022/12/14 18:46,7880,-0.004286975,0.006973788,0.03570652,0.04830823,0.13145953,9.805651,-0.002313386,-0.006755874,-0.9997271,0.022244262,0.040145874,0.12696838,9.977081,0.006530762,-0.003982544,0.001968384
2022/12/14 18:46,7920,-0.08100571,-0.085553944,-0.06782532,0.04573801,0.13594127,9.805602,-0.002177571,-0.006981334,-0.9997267,0.022203986,0.006027222,0.10601807,9.831039,0.022506714,-0.002914429,0.022201538
2022/12/14 18:46,7960,0.08987394,0.01857765,-0.0905714,0.048732936,0.13782443,9.80556,-0.002331272,-0.007079685,-0.9997355,0.0217571,0.15267944,0.15690613,9.880707,-0.016906738,0.002410889,0.011550903
2022/12/14 18:46,8000,0.098246925,-0.019121304,0.11139393,0.054784678,0.13198549,9.805609,-0.002650699,-0.006787007,-0.99975085,0.021099588,0.186203,0.124572754,9.952545,0.006530762,0.004547119,-1.68E-04
2022/12/14 18:46,8041,0.03488595,0.024635062,-0.069254875,0.059721466,0.13683021,9.805513,-0.002899113,-0.007038491,-0.99975425,0.020820737,0.035964966,0.13536072,9.875931,0.005462647,-0.002914429,-0.016143799
2022/12/14 18:46,8080,0.02101025,0.001333103,0.04194355,0.057335004,0.1353411,9.80555,-0.00277828,-0.006960343,-0.9997529,0.020929655,0.062301636,0.14732361,9.964508,-0.003067017,-0.009307861,0.003036499
2022/12/14 18:46,8120,0.07051863,-0.003191084,-0.053207397,0.06607083,0.13652904,9.805476,-0.003225529,-0.007028773,-0.99976045,0.02047568,0.09341431,0.11740112,9.880707,-0.001998901,2.75E-04,-0.025726318
2022/12/14 18:46,8160,-0.16511312,-0.038378224,0.12704277,0.06174701,0.12933357,9.805603,-0.003011262,-0.006658049,-0.99975944,0.020679222,-0.1232605,0.122787476,10.097382,-0.016906738,0.001342773,-0.01828003
2022/12/14 18:46,8200,-0.042113878,-0.022662029,0.04873085,0.055479392,0.13405746,9.805576,-0.002684207,-0.006893255,-0.999751,0.021052908,0.007827759,0.08387756,9.89209,0.04168701,-0.013565064,0.006225586
2022/12/14 18:46,8241,0.037716426,-0.04276739,-0.15629864,0.061224565,0.14190753,9.805432,-0.002969902,-0.007299107,-0.9997509,0.020882303,0.107788086,0.15930176,9.785538,0.004394531,-0.006103516,0.006225586
2022/12/14 18:46,8280,0.038192593,0.00435108,-0.015872955,0.06552481,0.13569179,9.805493,-0.003196106,-0.006986645,-0.99975353,0.0208279,0.06707764,0.13056946,10.017181,-0.03715515,0.006668091,-0.020401001
2022/12/14 18:46,8320,-0.1192572,-0.041127145,0.2876339,0.057785574,0.129274,9.805628,-0.002771474,-0.006720955,-0.9997463,0.021317752,-0.041259766,0.06173706,10.130905,0.03955078,-0.008239746,0.009414673
2022/12/14 18:46,8360,0.104049146,0.014779896,-0.3309536,0.061630424,0.14359015,9.805405,-0.002983833,-0.007387328,-0.99973595,0.02155478,0.12814331,0.17486572,9.597,-0.003067017,-0.010375977,0.012619019
2022/12/14 18:46,8400,0.0908109,-0.06389569,-0.001661301,0.06942777,0.1345157,9.805481,-0.003392034,-0.006932937,-0.99974024,0.0214453,0.1407013,0.084472656,9.908249,-0.030761719,-0.002914429,9.00E-04
2022/12/14 18:46,8440,-0.011995427,0.020409033,0.21922112,0.07337792,0.1212153,9.805626,-0.003607952,-0.006259221,-0.999744,0.021441065,0.0718689,0.1652832,10.1315,-9.31E-04,-0.001846314,0.006225586
2022/12/14 18:46,8480,0.1138848,0.009591848,-0.08940697,0.0778839,0.13212591,9.80545,-0.003825029,-0.006820747,-0.9997373,0.021544533,0.19636536,0.1539154,9.796326,0.017181396,-0.010375977,9.00E-04
2022/12/14 18:46,8521,0.054974005,-0.03289351,-0.031728745,0.08678007,0.1272058,9.805442,-0.004286578,-0.006577985,-0.99974567,0.021140821,0.12753296,0.089263916,9.916031,-0.026504517,-0.001846314,-0.028930664
2022/12/14 18:46,8560,-0.11334819,0.008886211,0.13431168,0.082725465,0.12074405,9.805558,-0.004085968,-0.006244775,-0.99974567,0.02128112,0.006637573,0.1772461,10.099182,0.006530762,-0.011444092,-0.003356934
2022/12/14 18:46,8600,0.058803722,-0.024300173,0.001955032,0.08761474,0.13096558,9.805385,-0.004324277,-0.006771066,-0.99974173,0.021259392,0.1975708,0.11859131,9.845993,0.034225464,-0.011444092,-0.005493164
2022/12/14 18:46,8640,0.05637393,-0.019869938,-0.1410389,0.095403984,0.13083772,9.805313,-0.004720741,-0.006773525,-0.99973756,0.0213696,0.17481995,0.120391846,9.906448,-0.017974854,-0.006103516,-0.009750366
2022/12/14 18:46,8681,0.081303306,0.09437302,0.09707928,0.10240016,0.13260137,9.80522,-0.00507532,-0.006871177,-0.9997347,0.021391043,0.22749329,0.20718384,9.95015,0.008651733,-0.005050659,-0.023605347
2022/12/14 18:46,8720,-0.09988109,0.029541656,-0.05642605,0.10358874,0.13897118,9.805119,-0.005126281,-0.007199118,-0.99972403,0.021765074,0.037750244,0.08029175,9.831039,0.001205444,-0.010375977,-0.008682251
2022/12/14 18:46,8760,0.12647048,-0.006532088,0.08377743,0.105984494,0.13482103,9.80515,-0.005252787,-0.006990381,-0.9997242,0.021796636,0.25143433,0.10003662,10.040527,-0.007324219,-0.008239746,-0.008682251
2022/12/14 18:46,8800,-0.063964024,0.02882114,-0.049437523,0.11108186,0.13621567,9.805075,-0.005510107,-0.007067918,-0.9997192,0.02193554,0.02218628,0.16169739,9.887299,-0.004119873,-0.001846314,-0.020401001
2022/12/14 18:46,8841,-0.084258914,-0.01711607,0.06822014,0.10627659,0.13605404,9.805131,-0.005261288,-0.007057308,-0.99970794,0.022508033,0.035354614,0.1144104,9.99025,0.008651733,-0.013565064,0.007293701
2022/12/14 18:46,8880,0.12836576,0.011103585,-0.19328213,0.11178426,0.14044288,9.805006,-0.005536835,-0.007287515,-0.9997042,0.022533622,0.17602539,0.17366028,9.718506,1.37E-04,0.001342773,-0.003356934
2022/12/14 18:46,8920,-0.122676894,-0.034772485,-0.04526329,0.11006548,0.1323583,9.805139,-0.005455694,-0.006875626,-0.9996983,0.02294048,0.019805908,0.074905396,9.981277,-0.03501892,0.005615234,0.006225586
2022/12/14 18:46,8960,0.022751935,0.10315822,-8.08E-04,0.10383586,0.1205338,9.80536,-0.005148119,-0.006268701,-0.99968976,0.023550862,0.17901611,0.22393799,9.974091,-0.031829834,0.013061523,0.025405884
2022/12/14 18:46,9001,0.026457474,-0.005999155,0.23393726,0.10660232,0.1177065,9.805365,-0.005289184,-0.006124547,-0.9996788,0.024017638,0.13891602,0.089263916,10.216507,0.003326416,0.002410889,9.00E-04
2022/12/14 18:46,9040,-0.062018216,0.011854768,-0.25211906,0.09498101,0.1260359,9.80538,-0.004683395,-0.006543364,-0.9996654,0.02458303,0.032974243,0.15570068,9.662247,0.017181396,0.01626587,9.00E-04
2022/12/14 18:46,9080,-0.037021898,0.05932711,-0.06395912,0.08719436,0.12396608,9.805479,-0.004283513,-0.006431793,-0.9996463,0.025448048,0.046142578,0.17486572,9.959122,-0.020111084,-0.003982544,0.025405884
2022/12/14 18:46,9120,-0.009826332,-0.052577086,0.093235016,0.08916332,0.11926764,9.805519,-0.004386643,-0.006197212,-0.9996335,0.02598418,0.105392456,0.08387756,9.957321,0.006530762,-0.001846314,0.029663086
2022/12/14 18:46,9161,-0.076465935,0.027918547,-0.030986786,0.08443285,0.12175838,9.805531,-0.004138096,-0.006320604,-0.9996166,0.026637971,0.019195557,0.12637329,9.900467,0.003326416,0.017318726,0.023269653
2022/12/14 18:46,9200,0.005071275,0.014483936,-0.04789543,0.07691767,0.12027925,9.805612,-0.003754073,-0.006236788,-0.9996058,0.027115908,0.10598755,0.13954163,9.915436,-0.012649536,0.013061523,0.022201538
2022/12/14 18:46,9240,-0.19425353,-0.061087362,0.11249733,0.064483166,0.11593927,9.805753,-0.003121654,-0.00600079,-0.99958813,0.027889432,-0.12924194,0.029403687,9.977081,0.017181396,0.013061523,0.03605652
2022/12/14 18:46,9280,0.07957734,0.06513793,-0.09220123,0.054165654,0.12016671,9.805763,-0.002584718,-0.006203693,-0.9995653,0.02870646,0.15925598,0.103637695,9.836426,-0.003067017,0.01626587,0.043502808
2022/12/14 18:46,9320,-0.024869345,-0.018355958,-0.006731987,0.049143374,0.11752161,9.805823,-0.00233005,-0.00606251,-0.9995545,0.029130207,-0.04005432,0.09284973,9.900467,-0.010513306,0.023712158,0.031784058
2022/12/14 18:46,9360,-0.002021767,-0.010214597,0.16831493,0.040169574,0.112689145,9.805921,-0.001860503,-0.005821018,-0.9995263,0.030162362,0.06529236,0.07849121,10.085419,0.011856079,0.009872437,0.043502808
2022/12/14 18:46,9401,0.10310094,-0.05876016,-0.18495655,0.04333653,0.11809692,9.805843,-0.002025477,-0.006085794,-0.999517,0.030406684,0.13771057,0.06112671,9.737061,1.37E-04,0.008804321,0.02645874
2022/12/14 18:46,9440,0.045980975,-0.085290164,-0.012829781,0.04161778,0.10605774,9.805988,-0.001954768,-0.005470188,-0.9995108,0.030731097,0.0892334,0.058746338,9.944763,-0.025436401,0.015197754,0.007293701
2022/12/14 18:46,9480,0.029375095,0.051521346,0.20216942,0.041677423,0.09786199,9.806072,-0.001969815,-0.005052918,-0.9995079,0.030895311,0.030578613,0.12098694,10.10817,-0.010513306,-0.007171631,0.008361816
2022/12/14 18:46,9520,0.016654503,-0.010823205,-0.090434074,0.04504664,0.102324165,9.806013,-0.002132794,-0.005286321,-0.9994964,0.031216351,0.107788086,0.053955078,9.807098,0.019302368,-0.015701294,0.015808105
2022/12/14 18:46,9560,0.11689545,0.002253309,-0.09557438,0.05575183,0.09927803,9.805989,-0.002682784,-0.005148343,-0.99949324,0.031296983,0.114364624,0.1084137,9.876526,-0.028625488,0.005615234,-0.025726318
2022/12/14 18:46,9600,-0.10122942,-0.02816476,0.14078903,0.050076656,0.08789417,9.8061285,-0.002411362,-0.004559321,-0.9994943,0.03137668,-0.03227234,0.13835144,10.081223,-0.010513306,0.003479004,-0.010818481
2022/12/14 18:46,9641,-0.016930383,0.023702137,0.10787964,0.047468368,0.09128625,9.80611,-0.002270759,-0.0047291,-0.9994788,0.03185328,0.079055786,0.110809326,10.026764,0.010787964,-0.003982544,-0.007629395
2022/12/14 18:46,9680,-0.05691964,-0.038728625,-0.13714695,0.047094855,0.09820245,9.806046,-0.002281792,-0.005071648,-0.9994605,0.032369137,-0.064590454,0.06413269,9.795715,0.009719849,0.002410889,-0.016143799
2022/12/14 18:46,9721,-0.10140881,0.036155432,-0.049648285,0.038425375,0.0967822,9.806097,-0.001794479,-0.004996837,-0.999436,0.033157278,-0.040649414,0.06712341,9.938171,-0.013717651,0.008804321,0.006225586
2022/12/14 18:46,9761,0.052641217,-0.023561262,0.10640621,0.03523002,0.09098712,9.806165,-0.00163742,-0.004697523,-0.999409,0.034013342,0.0718689,0.05215454,10.023163,0.004394531,0.005615234,0.001968384
2022/12/14 18:46,9800,-0.030289304,-0.07266142,0.009325028,0.034376856,0.09334048,9.806146,-0.001588764,-0.004816328,-0.99940073,0.03424178,0.05152893,0.04496765,9.947159,0.024642944,2.75E-04,-1.68E-04
2022/12/14 18:46,9840,0.025656927,0.026370108,-0.069662094,0.037068438,0.10140042,9.806056,-0.001709344,-0.005232566,-0.9993819,0.034720436,0.061691284,0.113204956,9.87294,-0.003067017,2.75E-04,-0.006561279
2022/12/14 18:46,9880,-0.061493363,-0.05004794,-0.060365677,0.033585794,0.10003196,9.806083,-0.001531251,-0.005157573,-0.9993619,0.035312098,0.001251221,0.025817871,9.8394165,-0.008392334,-0.001846314,0.001968384
2022/12/14 18:46,9920,0.05812208,-0.02384796,0.018037796,0.036045726,0.09014628,9.8061695,-0.001671734,-0.004659224,-0.99934375,0.035882205,0.0826416,0.055740356,9.93338,-0.017974854,-0.007171631,-0.004425049
2022/12/14 18:46,9960,0.04614643,0.00917846,0.14389896,0.043410487,0.088492274,9.806154,-0.002048319,-0.004589183,-0.99933,0.03625317,0.07606506,0.14912415,10.054291,0.016113281,-0.006103516,-0.009750366
2022/12/14 18:46,10001,0.03725271,-0.007161833,-0.17057228,0.049223654,0.09823602,9.806034,-0.002322901,-0.005098064,-0.999301,0.03696122,0.06707764,0.08627319,9.67421,-0.004119873,-0.009307861,-0.010818481
2022/12/14 18:46,10040,-0.006057434,-0.054602623,-0.02083397,0.05204474,0.08399325,9.806152,-0.002491325,-0.004378896,-0.99928576,0.037451893,0.021591187,0.040786743,10.015381,-0.038208008,-0.001846314,-0.01828003
2022/12/14 18:46,10080,0.018004563,0.024722144,0.10155487,0.052147448,0.07562867,9.80622,-0.002510256,-0.003954346,-0.9992658,0.038025685,0.047927856,0.12397766,10.007004,-0.009460449,-0.008239746,-0.012954712
2022/12/14 18:46,10120,-0.090911925,0.019353151,0.01800251,0.05286011,0.076980986,9.806207,-0.002541582,-0.004026122,-0.9992429,0.038612213,-0.058013916,0.07789612,9.907654,0.012924194,-0.008239746,-0.008682251
2022/12/14 18:46,10160,0.014290307,0.08052015,-0.08207798,0.05243747,0.079874285,9.806185,-0.002513183,-0.004173407,-0.9992315,0.03889279,0.09580994,0.16288757,9.845993,-0.025436401,-0.003982544,0.006225586
2022/12/14 18:46,10201,0.001372207,0.039568834,0.26600552,0.06103027,0.0738739,9.806182,-0.002962115,-0.003885313,-0.9992239,0.039086033,0.1000061,0.11380005,10.165024,-9.31E-04,-0.022094727,0.006225586
2022/12/14 18:46,10240,0.006820783,0.022133954,-0.07617283,0.069783285,0.0839392,9.806042,-0.00338701,-0.004416344,-0.99921143,0.03931272,0.083847046,0.077301025,9.875931,0.027832031,-0.011444092,-0.009750366
2022/12/14 18:46,10280,0.037409775,-0.002902389,-0.06083107,0.07477619,0.090677716,9.805946,-0.003626866,-0.004770447,-0.9992006,0.03952632,0.09820557,0.06651306,9.902863,0.004394531,-7.78E-04,-0.006561279
2022/12/14 18:46,10321,0.050007537,-0.035199508,0.011014938,0.0732965,0.08801587,9.805982,-0.003555009,-0.004633254,-0.99918574,0.039921522,0.13830566,0.074295044,10.028549,-0.006256104,0.004547119,0.013687134
2022/12/14 18:46,10360,0.023543477,-0.074902676,-9.01E-04,0.07988355,0.08847816,9.805926,-0.003914669,-0.004668952,-0.9991961,0.039622802,0.08325195,0.005462647,9.832825,0.009719849,-0.008239746,0.017944336
2022/12/14 18:46,10401,0.24948746,0.06725681,-0.13921642,0.09051486,0.07029402,9.805981,-0.00447018,-0.0037632,-0.99920565,0.039419603,0.31907654,0.15211487,9.905258,-0.080825806,0.017318726,0.005157471
2022/12/14 18:46,10440,0.13698204,0.029147536,0.33952427,0.09746172,0.04980823,9.80604,-0.004866148,-0.002731903,-0.9992198,0.039098337,0.26400757,0.062332153,10.219498,-0.028625488,-0.014633179,0.021133423
2022/12/14 18:46,10480,0.2444193,-0.07796872,5.61E-04,0.121681616,0.035343844,9.805831,-0.006129293,-0.002042279,-0.9992208,0.038936462,0.3759308,-0.035827637,9.939377,-0.028625488,-0.023147583,0.013687134
2022/12/14 18:46,10520,0.17205243,0.11907865,-0.30120373,0.14159112,0.021088127,9.805605,-0.007172009,-0.001355404,-0.9992156,0.03892145,0.3388214,0.13415527,9.637695,-0.06059265,-0.013565064,0.02645874
2022/12/14 18:46,10560,0.23463795,0.28129935,-0.09084988,0.1475259,-0.009060242,9.805535,-0.007534396,1.61E-04,-0.99917245,0.039970633,0.36097717,0.2628479,9.858566,-0.102127075,0.004547119,0.015808105
2022/12/14 18:46,10601,-0.05219847,0.27094024,0.37987995,0.1449647,-0.03340678,9.805522,-0.007454787,0.001399848,-0.9991359,0.04086407,0.095214844,0.26464844,10.269775,-0.010513306,0.011993408,0.022201538
2022/12/14 18:46,10640,0.005243719,0.3119254,0.03950596,0.13668336,-0.017131379,9.805682,-0.006999763,5.78E-04,-0.99908257,0.042245056,0.13113403,0.29457092,9.87233,0.05659485,0.036499023,0.046707153
2022/12/14 18:46,10680,0.1412982,0.2276887,-0.12106037,0.119083755,0.002217403,9.805926,-0.006060747,-3.82E-04,-0.9990024,0.044241957,0.27238464,0.16886902,9.837021,0.031021118,0.05567932,0.07865906
2022/12/14 18:46,10720,0.2020967,0.15625699,-0.20296764,0.09423453,0.009801673,9.806192,-0.004776455,-7.21E-04,-0.99892014,0.046208028,0.36695862,0.17007446,9.781357,-0.017974854,0.08123779,0.074401855
2022/12/14 18:46,10761,0.10320515,0.08425684,0.29832268,0.06362883,-0.004502562,9.806443,-0.003251431,7.50E-05,-0.99886334,0.047554117,0.1622467,0.0796814,10.275757,-0.029693604,0.06739807,0.032852173
2022/12/14 18:46,10800,-0.1252093,-0.033845402,0.34882355,0.035083186,0.007194817,9.806585,-0.001768983,-4.53E-04,-0.99883556,0.048209537,-0.029876709,-0.047210693,10.174606,0.083221436,0.08123779,0.056289673
2022/12/14 18:46,10840,0.086722896,0.107810244,-0.32715797,0.001001964,0.044618,9.806549,6.11E-05,-0.002274644,-0.9987826,0.049276084,0.10479736,0.16767883,9.5868225,0.08003235,0.09402466,0.058425903
2022/12/14 18:46,10880,0.08274214,0.07317283,0.18625069,-0.028160695,0.06464142,9.806397,0.001598863,-0.003219873,-0.9987418,0.05001906,0.10180664,0.14492798,10.152451,0.06617737,0.06739807,0.031784058
2022/12/14 18:46,10921,0.0973136,0.06477902,-0.24729824,-0.05228802,0.110142216,9.805893,0.002944251,-0.005475045,-0.9987226,0.05014452,-0.001754761,0.20419312,9.588623,0.15246582,0.04928589,0.01473999
2022/12/14 18:46,10960,-0.4057037,0.26792923,-1.1127157,-0.075444914,0.16524367,9.804968,0.004265472,-0.008221411,-0.9986928,0.05026825,-0.58055115,0.37657166,8.680618,0.04701233,0.08230591,0.001968384
2022/12/14 18:46,11000,-0.5781255,0.097245604,-0.12364578,-0.11572056,0.11786183,9.80526,0.006197471,-0.005702552,-0.99867797,0.050709102,-0.71461487,0.17066956,10.213501,-0.2480774,0.085494995,0.031784058
2022/12/14 18:46,11040,-0.1609511,0.43622956,0.71589756,-0.14339781,0.06376704,9.805394,0.007471497,-0.002864551,-0.99859995,0.05228853,-0.23997498,0.563324,10.389481,-0.020111084,0.04714966,0.08930969
2022/12/14 18:46,11080,0.22191533,0.8359926,-0.28350544,-0.155008,0.052993104,9.805283,0.008037709,-0.002271794,-0.9985097,0.053931803,0.10180664,0.8829498,9.667633,-0.11065674,0.017318726,0.031784058
2022/12/14 18:46,11121,0.057816237,0.83850807,0.20253563,-0.15668872,0.019075941,9.805379,0.008029888,-5.42E-04,-0.9985223,0.05374441,-0.12265015,0.8482208,10.072845,-0.06378174,0.011993408,-0.03744507
2022/12/14 18:46,11160,-0.44854736,0.5654679,-0.46538162,-0.17299499,0.010892193,9.805118,0.008837695,-8.47E-05,-0.99854124,0.053266514,-0.6751251,0.5262146,9.395889,-0.049926758,0.05886841,-0.05343628
2022/12/14 18:46,11200,-0.7847855,0.30431917,-0.36090565,-0.20430176,-0.028868612,9.804479,0.010323831,0.002024974,-0.99852395,0.05328409,-0.9941406,0.27601624,9.589218,-0.15219116,0.064193726,-0.022537231
2022/12/14 18:46,11240,-0.7287537,0.41458273,-0.07428837,-0.24520184,-0.072783306,9.803315,0.012281762,0.004387879,-0.9984255,0.054556876,-0.8313446,0.39811707,9.822052,-0.090408325,0.08016968,0.08718872
2022/12/14 18:46,11280,-0.23702323,0.68901896,-0.056788445,-0.27189064,-0.103861846,9.80233,0.013536111,0.006085641,-0.99823064,0.057578824,-0.51649475,0.60043335,9.899872,-0.10745239,0.045028687,0.058425903
2022/12/14 18:46,11320,-0.056505084,0.6921728,0.20549297,-0.28462857,-0.12472263,9.801724,0.014106325,0.007218818,-0.9980749,0.059961468,-0.2752838,0.61538696,10.018982,-0.008392334,0.014129639,0.03817749
2022/12/14 18:46,11361,0.287696,0.7871955,-0.5057001,-0.28589636,-0.110101916,9.801864,0.014205525,0.006500344,-0.99798495,0.06149792,0.003036499,0.7147522,9.248642,0.008651733,0.002410889,0.003036499
2022/12/14 18:46,11400,0.12065211,0.6915038,-0.3376236,-0.2750516,-0.11867006,9.802074,0.013721324,0.00680017,-0.99796706,0.061864514,-0.16934204,0.5687103,9.57486,-0.061645508,-0.03593445,-0.075805664
2022/12/14 18:46,11440,0.14361864,0.7176039,-0.09196663,-0.24932888,-0.12983699,9.80262,0.012281315,0.007391536,-0.9979962,0.061628647,-0.06819153,0.6357422,9.798111,-0.028625488,-0.08067322,-0.10668945
2022/12/14 18:46,11480,-0.27443466,1.0064505,-0.09877777,-0.21734887,-0.13644265,9.803292,0.01064422,0.007611109,-0.99810475,0.060130745,-0.60209656,0.8943176,9.825043,-0.0488739,-0.08920288,-0.18125916
2022/12/14 18:46,11520,-0.649374,0.97262573,0.022262573,-0.18659064,-0.14176306,9.80385,0.009071716,0.007776449,-0.99819136,0.058917105,-0.8504944,0.80332947,9.910049,-0.012649536,-0.088134766,-0.1375885
2022/12/14 18:46,11560,-0.41994435,0.9903766,0.035741806,-0.15658395,-0.13654067,9.804449,0.007548594,0.007431886,-0.99811554,0.060440924,-0.46502686,0.9200592,9.8316345,-0.019042969,-0.064697266,-0.022537231
2022/12/14 18:46,11601,-0.2716465,1.2821596,0.24296379,-0.13955745,-0.15282138,9.804465,0.006635198,0.00820531,-0.99814063,0.060032982,-0.489563,1.105011,10.200333,-0.14367676,-0.015701294,-0.15888977
2022/12/14 18:46,11640,-0.09906517,0.96886945,1.8157768,-0.1307472,-0.19858512,9.803768,0.006045447,0.010508528,-0.99811506,0.060160585,-0.2615204,0.7045746,11.925964,-0.07443237,-0.062576294,-0.16741943
2022/12/14 18:46,11680,-0.31587481,0.429382,1.60538,-0.10169588,-0.16965275,9.804655,0.004665922,0.00894118,-0.99820733,0.058995496,-0.5901184,0.09825134,11.418396,0.14927673,-0.050857544,-0.20469666
2022/12/14 18:46,11720,-0.49556023,-0.5175015,0.7688551,-0.114750914,-0.14648934,9.804885,0.00541028,0.00779432,-0.9982895,0.0576885,-0.69007874,-0.803772,10.776749,-0.07017517,0.07698059,-0.18019104
2022/12/14 18:46,11760,-0.9572352,-0.49593064,1.8256378,-0.14209788,-0.17605878,9.804039,0.006813109,0.009126723,-0.99830604,0.057055302,-1.2712708,-0.70321655,11.749985,0.10240173,0.011993408,-0.08432007
2022/12/14 18:46,11801,-0.42313084,-0.24557203,0.2713709,-0.12828808,-0.05153295,9.8056755,0.006371096,0.003016305,-0.9981636,0.060164988,-0.4309082,-0.28363037,10.115341,0.42410278,-0.13394165,0.19052124
2022/12/14 18:46,11840,0.8063816,-0.689728,-0.9306917,-0.07426321,0.10270449,9.805831,0.004115459,-0.004982166,-0.99790806,0.06432528,0.7859497,-0.6260071,8.977509,0.35487366,-0.10517883,0.09677124
2022/12/14 18:46,11880,1.4359423,-1.3146987,-0.39647865,-0.026780535,0.20156384,9.804542,0.002023389,-0.010168403,-0.9978778,0.06428421,1.4174194,-1.1293793,9.69516,0.25793457,-0.08280945,-0.12161255
2022/12/14 18:46,11920,0.5235784,-1.4774145,-1.0704079,-0.018955382,0.31567174,9.80155,0.001954939,-0.01600693,-0.9979764,0.06150632,0.39149475,-1.1233978,8.737488,0.32183838,0.097213745,-0.19830322
2022/12/14 18:46,11960,-0.028935678,-1.1996751,-1.1246939,-0.055536445,0.36011457,9.799879,0.003903947,-0.018166251,-0.9981072,0.05862446,-0.059814453,-0.788208,9.223511,-0.071243286,0.050354004,-0.14398193
2022/12/14 18:46,12001,-0.22796412,-0.9721171,0.667984,-0.076771945,0.32454714,9.800979,0.004843175,-0.016302206,-0.99825984,0.056462813,-0.38900757,-0.6367798,10.501404,0.031021118,0.04396057,-0.1375885
2022/12/14 18:46,12040,-0.16722322,-0.667688,-0.50095177,-0.09241702,0.34691572,9.8000765,0.005691807,-0.017400451,-0.998277,0.055748187,-0.19387817,-0.21360779,9.341415,0.05445862,0.011993408,-0.007629395
2022/12/14 18:46,12080,0.17186221,-0.43174738,0.016394615,-0.0904545,0.34105656,9.800301,0.005596649,-0.017100608,-0.998212,0.057000708,0.114364624,-0.10646057,9.956726,0.001205444,0.017318726,0.02859497
2022/12/14 18:46,12120,0.16589572,-0.39627653,-0.4758644,-0.1021219,0.34609306,9.800009,0.006226988,-0.017315462,-0.9981325,0.058248,0.05570984,-0.005310059,9.3372345,0.015045166,0.04714966,0.045639038
2022/12/14 18:46,12160,0.47203848,-0.096111834,-0.5834503,-0.121208966,0.32139173,9.800632,0.007149179,-0.0159903,-0.99805987,0.059746902,0.4046631,0.2119751,9.389908,-0.13941956,0.07165527,0.027526855
2022/12/14 18:46,12200,0.49685663,1.61E-04,0.018375397,-0.15904,0.24794163,9.802225,0.008852365,-0.012134519,-0.9980922,0.05988638,0.31848145,0.26643372,10.013596,-0.20759583,0.1281128,-0.031066895
2022/12/14 18:46,12241,0.47854847,0.09276703,0.054356575,-0.21128772,0.17507786,9.80281,0.011276563,-0.008283127,-0.99819654,0.05837756,0.19337463,0.24069214,9.826843,-0.15539551,0.19309998,-0.0949707
2022/12/14 18:46,12280,-0.20861912,-0.07958188,-0.58806515,-0.28143984,0.111546226,9.801976,0.014649788,-0.004867439,-0.99828136,0.056533318,-0.4883728,-0.023254395,9.374344,-0.1862793,0.17710876,-0.02999878
2022/12/14 18:46,12320,-0.18798473,0.037842423,0.052545547,-0.3495696,0.023618506,9.800389,0.017865216,-2.20E-04,-0.99832124,0.05509552,-0.4602356,0.29936218,10.118332,-0.23422241,0.06951904,-0.0395813
2022/12/14 18:46,12360,-0.8101318,-0.38192132,0.7900858,-0.33072028,-0.008144403,9.801068,0.016816698,0.001334368,-0.9983699,0.054525807,-1.157547,-0.2680664,10.620529,0.10559082,-0.1456604,0.17985535
2022/12/14 18:46,12401,0.13273302,0.2339918,-0.10031223,-0.2710661,0.06572003,9.802683,0.013603076,-0.003097399,-0.9981746,0.058761068,-0.031082153,0.39453125,9.716705,0.20573425,-0.16696167,0.29704285
2022/12/14 18:46,12440,0.48232907,0.52560925,-0.46344852,-0.2021954,0.1484183,9.803442,0.01076737,-0.006901514,-0.9979215,0.06315923,0.29034424,0.7225342,9.370148,0.1471405,-0.12542725,0.20649719
2022/12/14 18:46,12480,0.44301897,0.672932,-0.7062988,-0.15154323,0.21439235,9.803135,0.008433973,-0.010396437,-0.9977171,0.066192396,0.33943176,0.8512268,8.957153,0.1513977,-0.088134766,0.15003967
2022/12/14 18:46,12520,0.75540495,0.96245337,-1.2824097,-0.12999952,0.2530262,9.802523,0.007494489,-0.01241927,-0.99756026,0.06828689,0.62493896,1.2133484,8.678223,-0.016906738,-7.78E-04,0.083984375
2022/12/14 18:46,12560,0.35202253,0.7624906,-0.8140888,-0.12036979,0.226625,9.803291,0.006919392,-0.01110523,-0.99753743,0.068904534,0.12454224,0.9421997,9.133118,-0.16178894,-0.01676941,0.030731201
2022/12/14 18:46,12601,-0.3104233,0.6386129,0.102137566,-0.12916286,0.15165634,9.804626,0.007106731,-0.007256878,-0.99753606,0.069416486,-0.4237213,0.81770325,10.102783,-0.1862793,0.03543091,0.055221558
2022/12/14 18:46,12640,-0.1968708,0.9375916,0.5944166,-0.13484742,0.116293095,9.805033,0.00728191,-0.005422821,-0.99740005,0.07148898,-0.22201538,1.1630707,10.48645,-0.03501892,0.002410889,0.17880249
2022/12/14 18:46,12680,0.6125425,1.4202622,0.4863844,-0.13110279,0.1269662,9.804952,0.007149272,-0.005956697,-0.9971668,0.074644506,0.49266052,1.5503235,10.436768,0.006530762,-0.022094727,0.17985535
2022/12/14 18:46,12720,0.34537327,1.4423039,0.62602997,-0.11482217,0.14977562,9.804834,0.006429285,-0.007159664,-0.9969411,0.07756192,0.25442505,1.6042023,10.477463,0.022506714,0.010940552,0.17240906
2022/12/14 18:46,12761,0.3408988,1.3295227,1.3371048,-0.123918675,0.13217257,9.804976,0.006839429,-0.006209745,-0.9967242,0.08034627,0.20953369,1.2923584,11.563843,-0.17669678,0.050354004,0.10316467
2022/12/14 18:46,12800,-0.18668409,-0.06810644,2.6027527,-0.1528923,0.1038359,9.804909,0.0084919,-0.004816451,-0.99659234,0.08190474,-0.3297577,-0.099868774,12.3341675,0.09387207,0.111068726,0.13938904
2022/12/14 18:46,12840,0.65715563,-0.4436444,0.7037926,-0.19848189,0.14928831,9.803505,0.010734998,-0.006717984,-0.9962501,0.08558856,0.514801,-0.28363037,10.670197,0.05873108,0.097213745,0.15855408
2022/12/14 18:46,12880,1.2643187,-0.5034403,0.751421,-0.20475477,0.15412411,9.803301,0.011093287,-0.006906775,-0.9960133,0.0882428,0.9840698,-0.34109497,10.628296,0.040618896,0.004547119,-0.028930664
2022/12/14 18:46,12921,0.36141843,-1.0324695,0.17924976,-0.20465969,0.20221418,9.802428,0.011302354,-0.009353297,-0.9960171,0.08794727,-0.05860901,-0.9001312,9.977676,0.25898743,0.078048706,-0.18232727
2022/12/14 18:46,12960,-1.476179,-1.6134454,-0.7792759,-0.23065126,0.2780846,9.799992,0.01292771,-0.013126765,-0.9961926,0.08521112,-1.778244,-1.3658142,9.254028,0.15992737,-0.058303833,-0.13970947
2022/12/14 18:46,13000,-1.5312234,-1.7316328,-0.2718191,-0.23870666,0.3117323,9.798787,0.013468398,-0.014815686,-0.99624914,0.084182896,-1.7100067,-1.4017181,9.604187,0.1194458,0.04396057,-0.06088257
2022/12/14 18:46,13040,-0.87081283,-1.3471076,-0.32516098,-0.2667176,0.33224815,9.79739,0.014994158,-0.015725378,-0.99613965,0.08505113,-0.9983368,-0.93125916,9.57785,0.083221436,0.010940552,0.03817749
2022/12/14 18:46,13080,-0.07288009,-0.8066268,-0.6966839,-0.26537699,0.3665056,9.796205,0.015181777,-0.017233282,-0.9959563,0.08685396,-0.27049255,-0.3841858,9.241455,0.09919739,-0.03807068,0.03817749
2022/12/14 18:46,13121,0.010355651,-0.48645625,-0.7838917,-0.25566125,0.39236656,9.795462,0.014769224,-0.018770035,-0.99574184,0.08903763,-0.28486633,-0.08909607,9.105591,0.04701233,-0.009307861,0.006225586
2022/12/14 18:46,13160,-0.2229715,-0.4145755,-0.59038067,-0.2560411,0.3737683,9.796179,0.01472969,-0.017801825,-0.9956295,0.09048789,-0.38960266,-0.07713318,9.482086,-0.1000061,0.006668091,0.01473999
2022/12/14 18:46,13200,-0.12961662,-0.2804534,-0.023461342,-0.2737104,0.331194,9.797233,0.015445882,-0.015541898,-0.99556434,0.09149601,-0.43270874,0.070114136,9.984863,-0.08189392,0.08337402,-0.03425598
2022/12/14 18:46,13240,-0.21485865,-0.06695768,0.29417133,-0.30706415,0.32746553,9.7963705,0.017131222,-0.015187598,-0.9954909,0.092052914,-0.45185852,0.31611633,10.121933,0.10346985,0.073791504,0.008361816
2022/12/14 18:46,13280,-0.15391716,0.022245139,-0.979826,-0.32656857,0.38545874,9.793629,0.018430144,-0.01800674,-0.9952416,0.09396937,-0.46861267,0.42025757,8.850601,0.123703,0.02798462,0.025405884
2022/12/14 18:46,13321,-0.19292349,0.2729613,-1.0970306,-0.339263,0.3954532,9.792798,0.019156545,-0.018418986,-0.99504817,0.09577537,-0.55181885,0.6824341,8.911667,-0.08828735,0.009872437,-0.01828003
2022/12/14 18:46,13360,-0.39219278,0.48133078,-0.32411575,-0.33536428,0.35802817,9.794373,0.018794859,-0.01651473,-0.99497217,0.0969765,-0.6763153,0.84942627,9.551514,-0.09361267,-0.041259766,0.04777527
2022/12/14 18:46,13400,0.02880925,0.57032514,-0.33826828,-0.31437543,0.3322761,9.795976,0.017644946,-0.015260433,-0.99473196,0.099820495,-0.30162048,0.83984375,9.605972,-0.06803894,-0.08920288,0.025405884
2022/12/14 18:46,13440,-0.47414052,0.13986993,-0.17391205,-0.27963385,0.3223774,9.797359,0.015849099,-0.014915329,-0.9946455,0.101028554,-0.86724854,0.39033508,9.613754,0.028900146,-0.08494568,-0.020401001
2022/12/14 18:46,13481,-0.30178767,0.20955035,-1.0403996,-0.24846128,0.3393374,9.797627,0.014555278,-0.015891738,-0.9944975,0.102520026,-0.23577881,0.6896057,8.848221,-0.013717651,-0.06895447,0.06694031
2022/12/14 18:46,13520,0.3478244,0.8032309,-0.75376225,-0.22513083,0.30915317,9.7991905,0.013063295,-0.014481176,-0.99435014,0.10434318,0.0491333,1.164856,9.201355,-0.16390991,-0.04232788,-0.10029602
2022/12/14 18:46,13560,-0.1371723,0.8633175,-0.021936417,-0.21354605,0.23862794,9.80142,0.01208829,-0.01097798,-0.9945149,0.103312746,-0.41175842,1.1678467,10.0099945,-0.22676086,-0.01676941,-0.15570068
2022/12/14 18:46,13600,-0.23414391,1.2019675,0.96688557,-0.21121952,0.16899598,9.802918,0.01159348,-0.007472975,-0.99468327,0.10205336,-0.43389893,1.3917084,10.985046,-0.11810303,-0.041259766,-0.14717102
2022/12/14 18:46,13640,-0.5908437,1.034199,0.7891836,-0.20065196,0.19798379,9.802598,0.011197045,-0.009012557,-0.994803,0.10079848,-0.77867126,1.236084,10.576233,0.19934082,-0.057235718,-0.10029602
2022/12/14 18:46,13680,0.03705199,1.1323442,0.3387947,-0.16977836,0.28166044,9.801134,0.010088976,-0.01339598,-0.99455565,0.10284876,0.13531494,1.4407959,10.300903,0.08854675,-0.05937195,0.02859497
2022/12/14 18:46,13720,0.63018274,0.78998154,2.3090372,-0.14381358,0.2804001,9.801585,0.008775418,-0.013461478,-0.99448925,0.103599794,0.4549408,0.89730835,12.414978,-0.07550049,-0.025283813,-0.13012695
2022/12/14 18:46,13761,-0.3904423,-0.18881705,2.7598228,-0.15896146,0.2597757,9.80192,0.009652291,-0.012245147,-0.9943823,0.10469345,-0.8600769,-0.16271973,12.72084,-0.014785767,0.06951904,-0.21960449
2022/12/14 18:46,13800,-1.5362035,-1.5782037,2.192031,-0.18134527,0.29215154,9.80062,0.010757955,-0.013846606,-0.99433947,0.10479276,-1.4472504,-1.3813782,11.821213,0.30267334,-0.043395996,0.033920288
2022/12/14 18:46,13840,0.09981646,-2.0656607,-0.009218216,-0.125436,0.46899682,9.794626,0.00905971,-0.023043258,-0.9932886,0.11298106,0.21192932,-1.5256195,9.622742,0.5476837,-0.18400574,0.12234497
2022/12/14 18:46,13880,1.4601386,-1.2711759,-2.1090202,-0.05699804,0.64485615,9.78526,0.006723976,-0.032332946,-0.9926357,0.11654885,1.5054016,-0.5685425,7.812729,0.36871338,-0.07002258,-0.020401001
2022/12/14 18:46,13921,1.1485529,-1.1057407,-1.3052607,-0.053549264,0.68395746,9.782623,0.006756176,-0.034342017,-0.99265736,0.115785725,0.9709015,-0.5098877,8.845215,-0.057388306,0.056747437,-0.3090973
2022/12/14 18:46,13960,-0.3320685,-1.553221,-0.03575611,-0.08088632,0.64306647,9.785209,0.007760664,-0.03214,-0.9932131,0.11151021,-0.5147095,-0.9324646,9.873535,-0.001998901,0.033309937,-0.29312134
2022/12/14 18:46,14000,-0.39586207,-1.344284,-0.3564682,-0.10123251,0.6579421,9.78403,0.00880181,-0.032799594,-0.9934365,0.10922749,-0.50094604,-0.6116333,9.421631,0.14820862,0.034362793,-0.12054443
2022/12/14 18:46,14040,-0.15724196,-0.85891587,-0.9083748,-0.11853386,0.69578546,9.781218,0.009890718,-0.034624677,-0.99336565,0.1092156,-0.25613403,-0.11604309,8.936203,0.06724548,0.034362793,-0.0395813
2022/12/14 18:46,14080,-0.097258806,-0.7790205,-0.63113976,-0.14123727,0.6787235,9.782115,0.010941563,-0.033633724,-0.99340504,0.109066345,-0.27947998,-0.15075684,9.407852,-0.11065674,0.073791504,-0.05343628
2022/12/14 18:46,14121,-0.002694994,-0.70505047,0.032588005,-0.16017689,0.62177014,9.785608,0.011624767,-0.030621786,-0.9933472,0.11040118,-0.066986084,-0.045410156,9.968704,-0.115982056,-0.009307861,0.032852173
2022/12/14 18:46,14160,0.4866289,-0.15123022,-0.2845831,-0.15952349,0.56880337,9.78884,0.011403414,-0.027892502,-0.9929816,0.114365734,0.3358307,0.520813,9.697556,-0.13409424,0.04396057,0.07759094
2022/12/14 18:46,14200,-0.04141417,-0.20662016,-0.038743973,-0.17589869,0.51070297,9.791763,0.01195577,-0.024820872,-0.9927645,0.11687448,-0.43211365,0.19880676,9.944153,-0.14581299,0.033309937,0.053100586
2022/12/14 18:46,14240,-0.08956802,-0.16000476,-0.2000761,-0.18116121,0.4681464,9.793795,0.012042627,-0.022592945,-0.9924245,0.12015906,-0.23518372,0.35920715,9.652664,-0.07550049,0.013061523,0.14683533
2022/12/14 18:46,14280,0.38582033,0.11496067,-0.57708454,-0.18937814,0.43796477,9.795034,0.012364064,-0.02096043,-0.99192667,0.12445579,0.22929382,0.53637695,9.365356,-0.10105896,0.040756226,0.15855408
2022/12/14 18:46,14321,0.6015496,0.24405429,-0.7178459,-0.19388656,0.39786202,9.796658,0.012416529,-0.01884956,-0.99143505,0.12863527,0.3855133,0.631546,9.139709,-0.12556458,0.017318726,0.13832092
2022/12/14 18:46,14360,0.44650602,0.4924326,-0.5386028,-0.19874471,0.3347596,9.79892,0.01230324,-0.01558149,-0.991026,0.13218695,0.20654297,0.7955475,9.413849,-0.2288971,0.062072754,0.09463501
2022/12/14 18:46,14400,0.24656925,0.66814554,0.098347664,-0.21387711,0.2533016,9.801045,0.012545337,-0.011331387,-0.9907614,0.13455883,0.06349182,1.0128326,10.007614,-0.17669678,0.01626587,0.11167908
2022/12/14 18:46,14440,0.54212576,1.0150791,-0.03905487,-0.20128974,0.22239697,9.802061,0.011724883,-0.009822646,-0.9904007,0.1373775,0.30171204,1.2085571,9.848984,-0.019042969,-0.06150818,0.09251404
2022/12/14 18:46,14480,0.12118991,0.93389106,-0.5308113,-0.17988196,0.2465246,9.801901,0.010839607,-0.011165251,-0.990063,0.13976097,-0.13702393,1.2450714,9.219315,0.052337646,0.006668091,0.06800842
2022/12/14 18:46,14521,-0.055556595,1.1586422,-0.79937935,-0.20032461,0.24767417,9.801475,0.011910435,-0.011045096,-0.9896653,0.14247333,-0.23997498,1.4820862,9.190582,-0.13195801,0.064193726,0.15110779
2022/12/14 18:46,14560,0.40895957,1.3850496,0.8508787,-0.2187197,0.18697119,9.802427,0.012425271,-0.007803395,-0.98917764,0.14598753,0.17781067,1.559906,10.854553,-0.18522644,0.07272339,0.14257812
2022/12/14 18:46,14600,0.43019047,1.5209422,1.3965302,-0.243041,0.15263982,9.802449,0.01341095,-0.005857632,-0.98881745,0.1484113,0.17901611,1.6024017,11.384277,-0.07550049,0.07698059,0.15748596
2022/12/14 18:46,14640,0.24120042,1.3241007,1.8037243,-0.2486376,0.2034408,9.801386,0.014099568,-0.008340924,-0.98840505,0.15095378,0.03955078,1.5263824,11.659012,0.27923584,-0.006103516,0.22247314
2022/12/14 18:46,14680,0.14986113,1.0562913,0.41170025,-0.2508723,0.32878593,9.797926,0.015214911,-0.014605626,-0.9879393,0.15339848,-0.26332092,1.2013702,10.254211,0.17164612,0.021591187,0.16494751
2022/12/14 18:46,14720,0.3618219,-0.23225549,1.733181,-0.2528564,0.36279485,9.796675,0.015632672,-0.016255386,-0.98742074,0.15649807,0.2203064,0.018630981,11.6901245,0.04273987,0.040756226,0.21821594
2022/12/14 18:46,14760,0.9430214,-1.0076144,1.7870302,-0.27219278,0.3550555,9.79644,0.016577689,-0.015676744,-0.9870863,0.15855601,0.7386627,-0.7056122,11.932541,-0.05419922,0.09828186,0.015808105
2022/12/14 18:46,14801,0.51001745,-1.3262017,2.2235346,-0.27496195,0.40984184,9.794223,0.017089624,-0.01848055,-0.9876385,0.15471469,0.10897827,-0.91030884,11.813431,0.5189209,-0.08706665,-0.09284973
2022/12/14 18:46,14840,-0.048552066,-1.2904807,-1.3027544,-0.19835486,0.6582666,9.782521,0.015105398,-0.031655077,-0.98777777,0.15187117,-0.23039246,-0.6295929,8.336456,0.6403656,-0.2894745,-0.10882568
2022/12/14 18:46,14880,-0.74874127,-2.0674212,-2.1144953,-0.13877636,0.7793705,9.774646,0.012839645,-0.03829996,-0.988371,0.14659826,-1.0049133,-1.3430634,7.8516235,0.092819214,-0.02848816,-0.32081604
2022/12/14 18:46,14920,-1.0081451,-2.0853827,-0.44387722,-0.18478529,0.701511,9.779782,0.014353734,-0.03411592,-0.98944074,0.14013231,-1.0647736,-1.2993774,9.662842,-0.26405334,0.087631226,-0.21427917
2022/12/14 18:46,14961,-0.07731035,-1.4864471,0.7224703,-0.19838242,0.61594194,9.785277,0.014288588,-0.02975837,-0.99021864,0.1355631,-0.2609253,-0.827713,10.579819,1.37E-04,-0.034866333,-0.13438416
2022/12/14 18:46,15000,0.6374372,-0.82352656,-0.4094591,-0.18780446,0.6515236,9.783181,0.013896963,-0.031677432,-0.9906054,0.13230377,0.49205017,-0.102874756,9.346207,0.19294739,-0.045532227,-0.1333313
2022/12/14 18:46,15040,-0.46377793,-1.0275972,-1.0739374,-0.17810042,0.6740475,9.7818365,0.013394691,-0.032950282,-0.99121886,0.12735783,-0.77388,-0.5056915,9.070877,-0.08508301,-0.023147583,-0.21109009
2022/12/14 18:46,15080,-0.54570615,-1.2479724,0.05874729,-0.19093405,0.61354303,9.785576,0.013551985,-0.029846773,-0.99172425,0.12413087,-0.5434418,-0.53622437,10.045914,-0.106399536,0.006668091,-0.08113098
2022/12/14 18:46,15121,-0.29492304,-0.6395402,-0.089663506,-0.18943802,0.5892929,9.787095,0.013238593,-0.028666355,-0.9921204,0.12124411,-0.70025635,-0.07354736,9.627533,0.021438599,-0.027420044,-0.1695404
2022/12/14 18:46,15160,-0.60531044,-0.34809482,-1.0246029,-0.19338998,0.5741361,9.787918,0.013307028,-0.027553784,-0.99250627,0.11830052,-0.6697235,0.28858948,8.927216,-0.12876892,0.014129639,-0.067276
2022/12/14 18:46,15200,-0.33013076,-0.075427264,-0.1540575,-0.22117496,0.4800559,9.792396,0.014056812,-0.023003839,-0.9928285,0.116468325,-0.5877228,0.36997986,9.929199,-0.24700928,0.05140686,-0.06941223
2022/12/14 18:46,15240,-0.014521837,-0.25942844,0.16180038,-0.23162724,0.40810865,9.795416,0.014134973,-0.019312229,-0.99304116,0.115310684,-0.23997498,0.19940186,10.014191,-0.10533142,-0.006103516,-0.021469116
2022/12/14 18:46,15281,0.169335,0.121857285,-0.49204636,-0.22852187,0.38040325,9.796605,0.013807145,-0.017931873,-0.99311686,0.114920326,-0.018508911,0.563324,9.420425,-0.07229614,-0.011444092,-0.006561279
2022/12/14 18:46,15320,0.118383944,0.56816274,-0.61102676,-0.22358026,0.337638,9.7982855,0.013304356,-0.01579463,-0.993168,0.114851646,-0.13882446,0.9002991,9.347412,-0.18309021,-0.015701294,-0.07366943
2022/12/14 18:46,15360,-0.30756992,0.67243826,0.26269054,-0.21611726,0.27037245,9.80054,0.012517568,-0.012444058,-0.9933531,0.113745235,-0.57995605,0.9619446,10.197342,-0.13728333,-0.026351929,-0.11734009
2022/12/14 18:46,15400,-0.38308704,0.65494066,0.08039379,-0.20353258,0.26036474,9.801081,0.011809366,-0.012022082,-0.9934838,0.11272095,-0.5476227,0.899704,9.87532,0.07043457,-0.06790161,-0.054489136
2022/12/14 18:46,15440,-0.3205033,0.59979373,-1.154913,-0.18206507,0.30649254,9.800168,0.010983293,-0.014485912,-0.99349016,0.11245807,-0.42971802,0.92723083,8.54715,0.071502686,-0.062576294,-0.03211975
2022/12/14 18:46,15480,-0.06495933,0.5584588,-0.9354086,-0.16401908,0.29137698,9.800947,0.009976035,-0.013827531,-0.9935583,0.112031996,-0.26571655,0.76982117,9.060699,-0.13302612,-0.011444092,-0.09603882
2022/12/14 18:46,15521,-0.32274422,0.58700895,-0.6013603,-0.18703663,0.2180184,9.802443,0.010706233,-0.009996198,-0.9937809,0.110385574,-0.47221375,0.8117218,9.370148,-0.25552368,0.087631226,-0.12800598
2022/12/14 18:46,15560,-0.054586098,1.0714892,0.22040176,-0.21480401,0.118722685,9.803578,0.011548023,-0.004822234,-0.9939499,0.10911945,-0.25193787,1.2785797,10.321243,-0.2757721,0.031173706,-0.14505005
2022/12/14 18:46,15600,-0.57340956,1.1887424,1.1540518,-0.22081096,0.06291602,9.803963,0.011538148,-0.001981842,-0.9941624,0.10725734,-0.9115448,1.2390747,11.01976,-0.06059265,0.009872437,-0.15888977
2022/12/14 18:46,15640,-0.4259882,1.5543373,0.46071053,-0.21369657,0.10207205,9.80379,0.01139488,-0.003996714,-0.99407226,0.1080489,-0.58833313,1.6562653,10.3020935,0.1386261,-0.10092163,0.011550903
2022/12/14 18:46,15680,0.2562734,1.9261241,0.52281857,-0.15812534,0.18926993,9.803549,0.009084286,-0.00869615,-0.9937408,0.11100058,0.17842102,2.1261292,10.466095,0.16737366,-0.15312195,-0.007629395
2022/12/14 18:46,15721,0.30086702,0.95098186,1.2686005,-0.10740973,0.23741263,9.803187,0.006796081,-0.011417455,-0.9936417,0.11180222,0.05810547,1.0265961,11.247208,-0.014785767,-0.043395996,-0.22280884
2022/12/14 18:46,15760,-1.5311865,-0.8871765,1.9414778,-0.14633632,0.17650709,9.803969,0.008400042,-0.008131055,-0.9939481,0.109226875,-1.9979095,-0.97914124,12.236603,-0.27256775,0.19735718,-0.21002197
2022/12/14 18:46,15800,-2.1001022,-1.7289227,2.8626423,-0.24544874,0.10815135,9.802981,0.013557254,-0.004369425,-0.993693,0.11122637,-2.1248016,-1.5519562,12.425751,0.15353394,0.14729309,0.19477844
2022/12/14 18:46,15840,0.03274852,-1.4590971,-0.5669756,-0.29513267,0.2290812,9.799531,0.016318042,-0.009833754,-0.9929004,0.117413126,-0.0771637,-1.1922302,8.974503,0.39108276,0.073791504,0.32473755
2022/12/14 18:46,15880,0.8660091,-1.3551546,-1.2145338,-0.31121174,0.3362123,9.795943,0.018067865,-0.015440625,-0.99185145,0.12516344,0.67700195,-0.946228,8.798538,0.20040894,0.08123779,0.14790344
2022/12/14 18:46,15921,0.5006695,-1.1638699,-1.2504644,-0.3624731,0.37382108,9.792816,0.020757042,-0.016566737,-0.9915696,0.12682435,0.023986816,-0.8103485,8.823074,-0.017974854,0.17817688,-0.07899475
2022/12/14 18:46,15960,-0.45232162,-1.6250709,0.20188713,-0.4430784,0.34033063,9.790722,0.024604898,-0.014376782,-0.99164593,0.12580246,-0.9432678,-1.3322906,10.216507,0.019302368,0.20161438,-0.064086914
2022/12/14 18:46,16000,-0.2324636,-1.649333,-0.39025784,-0.5049165,0.37160853,9.78659,0.027951816,-0.015538779,-0.99142677,0.12668952,-0.6655426,-1.2089844,9.475494,0.1897583,0.06951904,0.13618469
2022/12/14 18:46,16040,-0.024141729,-1.1500816,-1.3096561,-0.51875603,0.41239744,9.784232,0.028971419,-0.017425086,-0.990972,0.12973633,-0.5428314,-0.6200104,8.74527,-0.006256104,0.029037476,0.21182251
2022/12/14 18:46,16080,0.75942385,-0.81340235,0.1900444,-0.5309472,0.3636055,9.785514,0.029325431,-0.014754366,-0.9904581,0.13384762,0.23408508,-0.37161255,10.24823,-0.1585846,0.03543091,0.20542908
2022/12/14 18:46,16121,0.61698204,-0.55910206,0.25399876,-0.52045184,0.32633844,9.787391,0.028569968,-0.012872696,-0.9901803,0.13623886,0.14968872,-0.13699341,10.083023,-0.011581421,-0.017822266,0.1873169
2022/12/14 18:46,16160,0.45712286,-0.13322362,-0.37241936,-0.51511794,0.32989696,9.787554,0.028379014,-0.012992127,-0.98981386,0.1389043,-0.14060974,0.30055237,9.486267,-0.017974854,0.024780273,0.1564331
2022/12/14 18:46,16200,0.20101446,-0.08309871,-0.16109848,-0.525918,0.31036004,9.787619,0.028788336,-0.011898764,-0.989568,0.14065844,-0.49316406,0.19940186,9.817261,-0.07763672,0.03970337,0.10848999
2022/12/14 18:46,16240,-0.45029014,-0.3528446,-0.065496445,-0.5359996,0.27705973,9.788071,0.029080225,-0.010080923,-0.9892694,0.14282443,-1.0516052,-0.045410156,9.783157,-0.082962036,-0.002914429,0.21821594
2022/12/14 18:46,16281,-0.016515315,0.14721784,-0.44457245,-0.5368391,0.24344902,9.7889185,0.028922211,-0.00822029,-0.988498,0.14821501,-0.5494232,0.4040985,9.4760895,-0.13621521,0.03010559,0.32366943
2022/12/14 18:46,16320,-0.1934424,0.33380914,-0.05038929,-0.5600507,0.17920819,9.789005,0.029634055,-0.004635272,-0.98763937,0.15384656,-0.8498993,0.49987793,9.995041,-0.2246399,0.057800293,0.2863922
2022/12/14 18:46,16360,-0.7374382,0.12941958,0.41898823,-0.57436675,0.13654171,9.788864,0.030035788,-0.002173455,-0.9865946,0.16038767,-1.3018036,0.2843933,10.30629,-0.008392334,-0.007171631,0.4333954
2022/12/14 18:46,16400,0.2516498,0.5864904,-0.62487984,-0.562332,0.1642827,9.789136,0.02969054,-0.003384006,-0.98501766,0.16984467,-0.26391602,0.79974365,9.277374,0.024642944,-0.05937195,0.4706726
2022/12/14 18:46,16440,0.24320084,0.6377289,-0.6009455,-0.5356914,0.17941353,9.790364,0.02851784,-0.004132931,-0.9835682,0.17822266,-0.27947998,0.8416443,9.270187,-0.024368286,-0.057235718,0.42807007
2022/12/14 18:46,16480,0.31609762,0.9116744,-0.7132263,-0.5099266,0.17931129,9.791741,0.02738332,-0.004163696,-0.9820828,0.18640323,-0.20405579,1.12117,9.207352,-0.06803894,-0.033813477,0.45469666
2022/12/14 18:46,16521,0.009621024,0.8335426,-0.37638474,-0.49618217,0.16310628,9.792731,0.026510987,-0.003339357,-0.9805465,0.19445992,-0.56378174,0.9637451,9.590424,-0.09361267,-0.014633179,0.4568329
2022/12/14 18:46,16560,-0.1042133,0.8747524,-0.21486092,-0.4965307,0.1561191,9.792828,0.026418751,-0.002608936,-0.9784713,0.20466864,-0.5578003,1.0696869,9.693375,-0.04673767,0.014129639,0.54844666
2022/12/14 18:46,16600,-0.07753837,1.0038594,-0.19805717,-0.5106083,0.15826818,9.792069,0.02716919,-0.002293699,-0.9763252,0.21458258,-0.60627747,1.144516,9.750229,-0.05632019,0.057800293,0.58039856
2022/12/14 18:46,16640,-0.51499116,1.1598864,0.10993385,-0.5284443,0.1685249,9.790951,0.028197717,-0.00230053,-0.97388697,0.22526374,-1.0988922,1.3348541,9.999832,-0.009460449,0.029037476,0.7093048
2022/12/14 18:46,16681,-0.48333335,1.1260458,0.8195467,-0.51806384,0.2016576,9.790879,0.028117785,-0.003666606,-0.97058105,0.23909916,-0.9893646,1.331253,10.792313,0.073638916,-0.10411072,0.9266205
2022/12/14 18:46,16720,-0.7164157,1.0732648,1.218853,-0.4544214,0.30710864,9.791301,0.02642862,-0.009171904,-0.96594083,0.25724635,-1.2120209,1.41745,10.922791,0.2952118,-0.14459229,1.1790771
2022/12/14 18:46,16760,-0.47491837,0.50184,1.0712824,-0.38629985,0.40210322,9.790785,0.024678057,-0.014138128,-0.95922184,0.28121975,-0.5859375,0.6752472,11.256775,-0.03501892,-0.14459229,1.3377991
2022/12/14 18:46,16801,0.07957181,-1.3309348,2.7794485,-0.32205427,0.33496422,9.795636,0.020847706,-0.011268709,-0.9522169,0.30450183,-0.33514404,-1.3274994,13.031479,-0.31625366,-0.14459229,1.1162262
2022/12/14 18:46,16840,-0.58266664,-2.6757467,3.569047,-0.23868887,0.26576447,9.800141,0.01589406,-0.008899445,-0.94634116,0.32265562,-0.96481323,-2.373764,13.334351,0.18122864,-0.20957947,1.0075684
2022/12/14 18:46,16880,-0.85764724,-1.324359,-0.14955425,-0.13231777,0.4808989,9.793958,0.014785692,-0.020700179,-0.9384701,0.34442222,-0.9408722,-0.5541687,9.197174,0.70640564,-0.2905426,1.2493896
2022/12/14 18:46,16920,-0.723106,-0.3949083,-2.8150578,0.013038538,0.7464306,9.7781925,0.013394774,-0.035657965,-0.9291709,0.36768267,-0.7942352,0.34126282,7.010666,0.61265564,-0.30651855,1.2962646
2022/12/14 18:46,16960,-1.5363002,-1.4935663,-3.2891178,0.10551267,0.88021946,9.766498,0.012551859,-0.043470453,-0.91996175,0.38938814,-1.4897461,-0.6331787,6.7042084,0.069381714,-0.001846314,1.144989
2022/12/14 18:46,17000,-0.66203666,-1.5910152,-0.9878893,0.06841163,0.74465877,9.778098,0.012321446,-0.036110424,-0.9122445,0.40786543,-0.5320587,-0.8247223,9.20076,-0.56658936,0.26872253,0.9766846
2022/12/14 18:46,17041,-1.318591,-1.4031081,1.4017515,-0.040771488,0.524655,9.7925205,0.013180641,-0.023381004,-0.9062185,0.42195678,-1.4993286,-0.8558502,11.373505,-0.36418152,0.32518005,0.94792175
2022/12/14 18:46,17080,-1.3389838,-1.0004525,1.0936661,-0.1342611,0.46446308,9.794724,0.016518658,-0.01830722,-0.89900076,0.43725234,-1.4029541,-0.47636414,10.672592,0.12263489,0.19096375,1.1471252
2022/12/14 18:46,17120,-0.74197304,-0.6788404,-1.0320396,-0.17793345,0.5464211,9.789799,0.02076561,-0.020688027,-0.8900669,0.4548864,-0.7834625,-0.057373047,8.623154,0.21852112,0.120651245,1.2664337
2022/12/14 18:46,17160,-0.8348081,-0.6435058,-1.6173925,-0.20715952,0.5786346,9.787372,0.023278112,-0.021000782,-0.88048977,0.4730273,-1.08992,-0.12142944,8.568695,-0.12130737,0.13557434,1.2504578
2022/12/14 18:46,17200,-1.209656,-0.72628057,0.06746006,-0.25285414,0.49759027,9.790753,0.023744617,-0.015706439,-0.8693262,0.4934182,-1.5537872,-0.19026184,10.102783,-0.21611023,0.17073059,1.2728271
2022/12/14 18:46,17240,-1.3185147,-0.92553073,0.30009365,-0.3041711,0.4244886,9.792735,0.024407076,-0.010664133,-0.8588846,0.51147616,-1.6405792,-0.49971008,10.193161,-0.20759583,0.16220093,1.36763
2022/12/14 18:46,17281,-1.3273915,-0.86506605,0.011963844,-0.36132497,0.3492733,9.793765,0.025074659,-0.00531073,-0.8471214,0.5307809,-1.6794891,-0.49012756,9.905258,-0.22570801,0.17605591,1.5199585
2022/12/14 18:46,17320,-0.3695071,-0.5473133,-0.21972942,-0.4142139,0.27722457,9.793976,0.025419313,-2.72E-04,-0.83669,0.54708654,-0.6751251,-0.18965149,9.680801,-0.24275208,0.13450623,1.6680298
2022/12/14 18:46,17360,0.53689164,-0.107859194,-0.4499159,-0.45537367,0.1990689,9.794049,0.02490793,0.004699009,-0.8258686,0.5632926,0.15567017,0.07191467,9.473099,-0.33648682,0.19628906,1.5210266
2022/12/14 18:46,17400,0.18941629,-0.13814464,0.5177593,-0.5260958,0.07217452,9.792262,0.024058033,0.012441327,-0.8172794,0.57560474,-0.42971802,-0.10107422,10.643265,-0.39826965,0.20587158,1.3367462
2022/12/14 18:46,17440,0.021586299,-0.17724289,0.9827633,-0.5800738,-0.012560149,9.789471,0.02359621,0.0178636,-0.8098171,0.58593553,-0.47340393,-0.15733337,10.868927,-0.14686584,0.07058716,1.365509
2022/12/14 18:46,17481,0.95535487,0.3311352,0.006757736,-0.5880902,0.004380383,9.789,0.024207184,0.017718,-0.80216134,0.5963533,0.39868164,0.37716675,9.749039,0.031021118,0.014129639,1.2919922
2022/12/14 18:46,17520,0.8385101,0.42547458,-0.72312737,-0.5807621,0.0418915,9.789349,0.024846338,0.01627233,-0.7946228,0.6063765,0.21492004,0.50405884,9.241455,-0.057388306,-0.013565064,1.0714874
2022/12/14 18:46,17560,0.75472707,0.38256687,0.12734127,-0.53934413,0.03735988,9.791736,0.022831472,0.015463502,-0.7869388,0.6164146,0.30470276,0.40589905,10.11235,-0.045669556,-0.123291016,0.9159546
2022/12/14 18:46,17600,0.75806105,0.44745538,-0.09029484,-0.46963108,0.07132266,9.795139,0.020989439,0.01209759,-0.7813655,0.6236033,0.25862122,0.5387726,9.798111,0.085357666,-0.18293762,0.7146301
2022/12/14 18:46,17640,0.44796365,0.79438967,-0.4010048,-0.3916116,0.1132847,9.798174,0.019169357,0.008046748,-0.77801716,0.627899,-0.016113281,0.95895386,9.498245,0.004394531,-0.1648407,0.5345917
2022/12/14 18:46,17681,0.37570903,1.1703504,0.8710699,-0.32664466,0.110537015,9.800585,0.01648359,0.006124801,-0.7761528,0.6302997,0.019195557,1.3270721,11.007782,-0.06378174,-0.15312195,0.4387207
2022/12/14 18:46,17720,0.26131904,1.3459624,1.2809916,-0.23985538,0.18220931,9.802023,0.015350564,5.25E-04,-0.77506614,0.6316934,-0.08615112,1.5730743,11.044891,0.3474121,-0.23620605,0.35243225
2022/12/14 18:46,17760,-0.5698567,1.4967593,0.021567345,-0.15935513,0.33068752,9.799777,0.016956005,-0.00793108,-0.77477074,0.6319651,-0.75772095,1.8711548,10.02916,0.23449707,-0.14672852,0.27893066
2022/12/14 18:46,17800,-0.96701324,0.7881354,1.4126215,-0.14386776,0.4008633,9.797398,0.018591337,-0.011230129,-0.77560955,0.63083917,-1.1467743,1.08107,11.447723,0.13009644,0.05567932,0.19796753
2022/12/14 18:46,17841,-1.2650127,-0.593063,1.5388451,-0.19002137,0.45625108,9.7941885,0.02215246,-0.012028019,-0.7781206,0.6276089,-1.4921417,-0.32972717,11.571014,0.10986328,0.087631226,0.27999878
2022/12/14 18:46,17880,-1.1989917,-1.5670546,1.3986721,-0.23741628,0.54278785,9.788739,0.025910106,-0.013689592,-0.7815299,0.6231792,-1.1222382,-1.0264282,11.079605,0.36764526,0.16539001,0.5452423
2022/12/14 18:46,17920,1.1285144,-2.194561,-0.005051613,-0.26399627,0.6840274,9.779202,0.032290727,-0.018887946,-0.78128475,0.6230528,1.4599152,-1.6429443,9.8316345,0.393219,0.05886841,0.5186157
2022/12/14 18:46,17961,2.0756464,-2.422065,-1.2851915,-0.27256337,0.8180462,9.768669,0.036772467,-0.024171848,-0.7845109,0.6185517,1.7298584,-1.6004486,8.406479,0.4028015,0.18670654,0.15536499
2022/12/14 18:46,18000,0.6307235,-1.9957092,-2.2196512,-0.3560894,0.8956303,9.7591715,0.042339165,-0.025062287,-0.7903193,0.6107165,0.13830566,-1.143753,7.8360596,0.03955078,0.29536438,-0.022537231
2022/12/14 18:46,18040,-0.48276755,-2.189608,-0.4857149,-0.46039566,0.83664733,9.760043,0.044597432,-0.019681454,-0.79385024,0.6061563,-0.8995819,-1.3628235,9.528763,-0.20759583,0.20054626,0.025405884
2022/12/14 18:46,18080,0.7094255,-2.175122,0.66060734,-0.5000657,0.74544483,9.765482,0.04332685,-0.014892587,-0.7959469,0.6036303,0.4836731,-1.3550415,10.673187,-0.11705017,-0.015701294,0.20329285
2022/12/14 18:46,18120,1.3444426,-1.6398189,0.5194664,-0.44336253,0.7262395,9.769667,0.040398814,-0.015923336,-0.7969971,0.60242015,0.7081299,-0.80496216,10.101578,0.10772705,-0.09132385,0.1873169
2022/12/14 18:46,18161,0.2776262,-1.1020387,-0.7601414,-0.40440458,0.7458038,9.769883,0.039388977,-0.017974794,-0.79785997,0.60128605,-0.31658936,-0.45899963,9.201965,-0.012649536,-0.076416016,0.22566223
2022/12/14 18:46,18200,0.36850777,-0.5770152,-0.05573082,-0.371997,0.7170953,9.77332,0.03719182,-0.01778043,-0.79763645,0.6017281,0.05091858,0.2059784,9.879517,-0.06271362,-0.045532227,0.29917908
2022/12/14 18:46,18241,0.31118137,-0.43789643,-0.20379543,-0.32365817,0.7011543,9.7761965,0.034674805,-0.018718151,-0.7994766,0.5994033,0.010818481,0.26643372,9.684387,-0.04034424,-0.099853516,0.27146912
2022/12/14 18:46,18280,0.7663256,-0.59892416,-0.07796955,-0.2967247,0.67350996,9.778994,0.03265528,-0.018539093,-0.80184644,0.59634906,0.70155334,0.20118713,9.582642,-0.1000061,-7.78E-04,0.23526001
2022/12/14 18:46,18320,0.65836537,-0.46298957,0.15093517,-0.3055666,0.60016453,9.783498,0.030688966,-0.015448488,-0.8054789,0.59162766,0.23587036,0.09046936,10.0890045,-0.21931458,0.13769531,0.074401855
2022/12/14 18:46,18360,0.15767351,-0.21460259,0.5871115,-0.32079208,0.5416994,9.786421,0.029472018,-0.012758757,-0.8090316,0.58688706,0.016799927,0.39093018,10.463104,-0.025436401,-0.052978516,0.2341919
2022/12/14 18:46,18400,0.23953298,0.08768648,-0.78466606,-0.29994863,0.59157175,9.784194,0.030032925,-0.015586726,-0.81177574,0.58298814,-0.18849182,0.67045593,8.8350525,0.19081116,0.013061523,0.12767029
2022/12/14 18:46,18441,0.3397898,0.17206466,-1.6496162,-0.3119714,0.6236205,9.781828,0.03140316,-0.016715867,-0.8146443,0.5788688,0.007232666,0.82069397,8.465149,-0.08828735,0.09188843,0.11381531
2022/12/14 18:46,18480,0.8956424,0.25112957,-0.34573746,-0.34760842,0.56935877,9.783936,0.03120769,-0.013572948,-0.8177811,0.5745224,0.68717957,0.9248352,9.671814,-0.16178894,0.10787964,0.10635376
2022/12/14 18:46,18520,0.6924831,0.48352695,-0.104260445,-0.37333557,0.52200437,9.785627,0.030828841,-0.011249394,-0.82150555,0.56925535,0.25862122,1.0942383,9.746033,-0.08508301,0.05886841,-0.014022827
2022/12/14 18:46,18560,-0.20254415,0.4094174,-0.20312405,-0.3869802,0.5132644,9.785561,0.031066332,-0.01049566,-0.8254786,0.56348,-0.742157,0.9703369,9.579636,-0.006256104,0.04182434,0.044570923
2022/12/14 18:46,18600,-0.094825566,0.72125226,0.08381653,-0.39977506,0.52617913,9.78436,0.031949304,-0.010757241,-0.8269506,0.561263,-0.22381592,1.3462219,9.985458,0.03315735,0.031173706,0.2863922
2022/12/14 18:46,18641,1.148512,1.2600849,-0.28054428,-0.3993194,0.54819906,9.783169,0.032554004,-0.011722112,-0.8273043,0.5606875,0.75183105,1.777771,9.657455,-0.03501892,0.03224182,0.23526001
2022/12/14 18:46,18680,0.6746638,0.95677125,0.68852043,-0.3916809,0.5434077,9.783745,0.032074377,-0.011791215,-0.82824147,0.5593284,0.3070984,1.5030365,10.595383,-0.014785767,-7.78E-04,0.25549316
2022/12/14 18:46,18720,1.0120035,1.351026,1.0044947,-0.37924987,0.57744116,9.782286,0.032509513,-0.0136147,-0.82871246,0.5585637,0.5219879,1.9747009,10.878494,0.09068298,0.033309937,0.15110779
2022/12/14 18:46,18760,-1.1986085,0.22912174,0.8604479,-0.4204741,0.5869221,9.780036,0.034479436,-0.012965123,-0.830668,0.55554813,-1.6806793,0.6483154,10.950317,-0.12876892,0.14729309,0.1564331
2022/12/14 18:46,18800,-0.05529964,-0.83165026,2.3491898,-0.47553852,0.53931934,9.780255,0.03546701,-0.009374269,-0.83051354,0.55578905,-0.1633606,-0.28842163,12.219849,-0.061645508,0.12385559,0.3875885
2022/12/14 18:46,18841,0.899403,-0.95854706,1.5551968,-0.50142187,0.5376655,9.779053,0.036528267,-0.008529054,-0.8298652,0.5567016,0.44596863,-0.32014465,11.133484,0.07043457,0.11425781,0.33113098
2022/12/14 18:46,18880,1.9865836,0.024728656,0.6406641,-0.5321984,0.5712924,9.775519,0.038800757,-0.00904071,-0.82922775,0.5574891,1.4724884,0.81829834,10.618134,0.1471405,0.113204956,0.22460938
2022/12/14 18:46,18920,0.97613126,-0.4106387,-0.530879,-0.5451342,0.70043224,9.766402,0.042972874,-0.014332132,-0.83146125,0.5537329,0.110183716,0.16229248,9.067291,0.3751068,0.05354309,-0.08113098
2022/12/14 18:46,18960,-0.07811868,-1.3219669,-1.1731443,-0.5648868,0.793233,9.758181,0.04632803,-0.018028235,-0.8349562,0.5480664,-0.5865326,-0.7229614,8.799133,0.15460205,0.04714966,-0.07260132
2022/12/14 18:46,19000,0.41854042,-2.6231618,-0.46353245,-0.5866904,0.7678701,9.758923,0.04645143,-0.016605027,-0.83814365,0.54321426,-0.23039246,-1.9410248,9.533554,-0.1511383,0.057800293,-0.23878479
2022/12/14 18:46,19041,-0.72733337,-3.1935143,1.0458164,-0.6117064,0.6581942,9.765398,0.044367038,-0.011613768,-0.8431818,0.5356689,-1.4514313,-2.491684,11.049683,-0.092544556,0.042892456,-0.2675476
2022/12/14 18:46,19080,-1.0697882,-2.078071,-0.35844803,-0.6429549,0.64787316,9.76408,0.045378156,-0.010549919,-0.8459224,0.53126717,-1.5388336,-1.1652985,9.4240265,0.116241455,0.020523071,0.076538086
2022/12/14 18:46,19120,0.42478764,-0.78460616,-0.7276554,-0.6251449,0.6740652,9.763463,0.045314725,-0.012185581,-0.84614205,0.53088766,-0.11009216,-0.022064209,9.192978,0.0640564,-0.13180542,0.088256836
2022/12/14 18:46,19160,0.46948242,-0.6629291,-0.9686117,-0.58500946,0.69307655,9.76462,0.044026855,-0.014303749,-0.84866184,0.5269062,-0.23338318,-0.0627594,8.80571,0.013977051,-0.012496948,-0.110961914
2022/12/14 18:46,19200,-0.07281178,-1.2487533,0.07343674,-0.5969936,0.64555603,9.767151,0.043177426,-0.01223088,-0.8524883,0.5208165,-0.7158203,-0.68226624,10.193161,-0.13302612,0.03970337,-0.16421509
2022/12/14 18:46,19241,-0.18034065,-1.1379673,0.39505005,-0.6192197,0.6141698,9.767792,0.043232996,-0.010590123,-0.8563037,0.514551,-0.79663086,-0.43925476,10.079437,0.061920166,0.026916504,-0.09817505
2022/12/14 18:46,19280,-0.119555116,-0.9432606,-0.27462387,-0.61530054,0.6212587,9.767591,0.043191325,-0.011224152,-0.8589173,0.5101662,-0.6745148,-0.29022217,9.719711,0.018249512,-0.04978943,-0.009750366
2022/12/14 18:46,19320,0.17432386,-0.37485594,-0.44341946,-0.59463763,0.61785233,9.769087,0.042154405,-0.011756583,-0.86068475,0.50725394,-0.42611694,0.27062988,9.43779,-0.025436401,-0.06150818,0.022201538
2022/12/14 18:46,19360,0.08492428,-0.007358491,-0.08825302,-0.5712268,0.57898647,9.772863,0.04007419,-0.010802638,-0.8626504,0.5040949,-0.49435425,0.58187866,9.842407,-0.14793396,-0.023147583,-0.07899475
2022/12/14 18:46,19400,-0.3239441,-0.09099907,0.095887184,-0.5790832,0.529087,9.775229,0.03908985,-0.008601046,-0.86526525,0.49971396,-0.9031677,0.22872925,10.111755,-0.057388306,0.001342773,-0.04597473
2022/12/14 18:46,19441,0.7431493,0.05063671,-0.3883705,-0.5695538,0.5258205,9.775966,0.038556203,-0.008825113,-0.86690146,0.49690786,0.21253967,0.555542,9.452744,-0.011581421,-0.052978516,-0.038513184
2022/12/14 18:46,19480,0.32861257,-0.2970149,-0.5483923,-0.5459061,0.49852118,9.778745,0.036772132,-0.008401547,-0.86945695,0.49256656,-0.30940247,0.20896912,9.431198,-0.10745239,-0.052978516,-0.1461029
2022/12/14 18:46,19520,0.18856674,0.2928194,-0.4138031,-0.52958065,0.46028498,9.781517,0.03504166,-0.007316465,-0.8723457,0.48757723,-0.38302612,0.86857605,9.434799,-0.061645508,-0.03807068,-0.17274475
2022/12/14 18:46,19560,-0.008656561,1.0329806,-0.67498684,-0.5068596,0.44034934,9.783638,0.033745475,-0.00717998,-0.8751038,0.48270395,-0.47639465,1.57547,9.293533,-0.07017517,-0.101989746,-0.15888977
2022/12/14 18:46,19601,0.071911484,0.78361714,0.032857895,-0.4607239,0.42867157,9.786437,0.031095354,-0.007976915,-0.8779628,0.4776512,-0.39559937,1.2097473,9.93219,0.007598877,-0.1499176,-0.18232727
2022/12/14 18:46,19640,-0.079464704,0.63443863,-0.3321333,-0.41386753,0.45120504,9.787518,0.029484615,-0.010300948,-0.8807606,0.47253072,-0.52427673,1.112793,9.502426,0.045944214,-0.11264038,-0.17700195
2022/12/14 18:46,19680,-0.08754003,0.85368264,-0.07047081,-0.37887546,0.45071387,9.788959,0.027843563,-0.01126,-0.8831164,0.4681915,-0.46203613,1.3013306,9.926804,-0.053131104,-0.10838318,-0.12373352
2022/12/14 18:46,19720,-0.04870981,1.0064867,0.49681187,-0.32679886,0.4521595,9.790768,0.02548144,-0.012666949,-0.88495207,0.46481186,-0.35668945,1.4707184,10.409241,0.05126953,-0.1541748,-0.091781616
2022/12/14 18:46,19760,-0.31903246,1.3620718,0.19518757,-0.27269632,0.5013722,9.790029,0.024153484,-0.016251119,-0.8864374,0.461932,-0.5105133,1.9238281,10.126114,0.13009644,-0.14459229,-0.05555725
2022/12/14 18:46,19800,-0.019675195,1.4078462,0.30458927,-0.22442733,0.55007935,9.788638,0.023073584,-0.019646322,-0.88747346,0.45986137,-0.38841248,1.6101837,10.6779785,-0.012649536,-0.16163635,-0.064086914
2022/12/14 18:46,19841,-1.276571,-0.15664583,4.4998302,-0.065926686,0.5918674,9.78855,0.016838275,-0.025283676,-0.8881531,0.45854256,-1.1832886,0.25924683,14.4171295,0.46246338,-0.56111145,0.14576721
2022/12/14 18:46,19880,-0.2198876,-0.74831843,0.3351593,0.07241127,0.82922244,9.77126,0.016259525,-0.039242737,-0.8862388,0.46127695,0.04374695,0.048568726,9.847794,0.50827026,-0.2617798,0.24697876
2022/12/14 18:46,19920,0.6122847,-0.9702894,-0.20928001,0.10778755,0.8575776,9.768486,0.015460477,-0.04131314,-0.88468546,0.46409678,0.7865448,-0.22077942,10.024963,-0.24061584,0.085494995,0.08505249
2022/12/14 18:46,19960,0.22138792,-1.6221311,1.5240068,0.068797804,0.7903474,9.774508,0.015629351,-0.037343286,-0.8847831,0.46424136,0.023986816,-0.90971375,11.315445,0.1194458,0.09828186,0.010482788
2022/12/14 18:46,20000,-0.017435532,-1.3606014,-1.665102,0.044876374,0.9210832,9.763195,0.019843807,-0.042682704,-0.88421994,0.4646929,0.24246216,-0.31236267,7.9066925,0.46139526,0.089767456,0.09677124
2022/12/14 18:46,20040,1.8845935,-0.7207155,-2.5222244,-0.019491043,0.9635935,9.759174,0.023758827,-0.04308227,-0.8841846,0.4645396,1.9076233,0.18443298,7.7091675,-0.2619171,0.30281067,-0.115219116
2022/12/14 18:46,20081,1.1515985,-1.651401,1.4114761,-0.135822,0.77577806,9.774973,0.024375161,-0.031951662,-0.8870296,0.45996025,0.76678467,-1.0144653,11.806244,-0.38336182,0.23570251,-0.2632904
2022/12/14 18:46,20120,0.064526945,-1.6226062,0.99923706,-0.20449322,0.7372446,9.77676,0.026446892,-0.028714545,-0.8891904,0.45586896,-0.22740173,-0.77204895,10.508591,0.24407959,0.13237,-0.058761597
2022/12/14 18:46,20160,0.33438104,-0.94223523,-1.0573959,-0.22487213,0.81573063,9.770077,0.02916092,-0.031848956,-0.8896577,0.45458162,0.14729309,-0.08610535,8.810501,0.13648987,2.75E-04,0.011550903
2022/12/14 18:46,20200,0.18082224,-0.8954404,-0.42521858,-0.22061019,0.8328471,9.76873,0.029333493,-0.03275577,-0.89007384,0.45369062,-0.018508911,-0.04840088,9.380325,0.03529358,0.02798462,0.015808105
2022/12/14 18:46,20240,0.65675545,-0.71666616,-0.77061176,-0.22942421,0.822151,9.769433,0.029465672,-0.032083098,-0.8903748,0.45313928,0.5315552,0.16229248,9.151077,-0.094680786,0.01838684,9.00E-04
2022/12/14 18:46,20281,0.5623859,-0.64601916,0.2145052,-0.22765821,0.7707355,9.773665,0.02813309,-0.029838037,-0.8913672,0.45142302,0.29333496,0.0970459,10.1045685,-0.04673767,0.003479004,-0.047042847
2022/12/14 18:46,20320,0.2709295,-0.3504362,-0.6186266,-0.21715027,0.78705835,9.772603,0.027990242,-0.030861966,-0.89195067,0.45020893,0.1580658,0.5848694,8.974503,0.055526733,-0.024215698,0.045639038
2022/12/14 18:46,20360,1.0820737,0.058457494,0.046048164,-0.19519229,0.7351928,9.777105,0.025742918,-0.029046418,-0.89284974,0.4486791,0.8655548,0.7841797,10.156052,-0.25552368,-0.03060913,-0.10029602
2022/12/14 18:46,20400,0.19952728,-0.16788965,0.72958374,-0.19152139,0.67296463,9.781658,0.024023883,-0.026403002,-0.8950416,0.4445518,-0.11607361,0.50346375,10.469681,-0.013717651,-0.010375977,-0.14505005
2022/12/14 18:46,20440,0.120428115,0.28253996,-1.0251207,-0.18854187,0.6888474,9.78061,0.024172097,-0.02726531,-0.896267,0.44201562,-0.038864136,1.0164185,8.834442,-0.009460449,-0.024215698,-0.038513184
2022/12/14 18:46,20480,0.12546118,0.4337719,-0.53050995,-0.17708056,0.66739976,9.7823105,0.023114296,-0.026583532,-0.89710915,0.44040236,-0.02809143,1.1247559,9.294739,-0.08828735,-0.01889038,-0.021469116
2022/12/14 18:46,20520,0.2639626,0.5396037,-0.74871445,-0.17150916,0.62911874,9.784946,0.021971019,-0.024976864,-0.8976278,0.43949723,0.12992859,1.2510529,9.0451355,-0.1585846,0.017318726,0.009414673
2022/12/14 18:46,20560,0.27301973,0.5110966,-0.052329063,-0.18027961,0.55069304,9.7895155,0.020600818,-0.021194449,-0.89794624,0.4391115,0.15327454,1.0044556,10.145874,-0.20759583,0.036499023,0.04031372
2022/12/14 18:46,20600,0.22255675,0.6029918,0.13803482,-0.18416932,0.52257556,9.790985,0.020153789,-0.019812487,-0.89785695,0.43937933,0.018600464,1.1672516,9.676605,0.050201416,0.006668091,0.10423279
2022/12/14 18:46,20641,0.75906533,0.9412692,-0.8195839,-0.18363868,0.5247051,9.790881,0.020213587,-0.019885158,-0.89705145,0.44101545,0.5692749,1.4982605,9.095413,-0.113845825,0.03970337,0.06907654
2022/12/14 18:46,20680,0.6399324,0.9119355,-0.25970364,-0.19948779,0.48161525,9.792786,0.019964483,-0.017559726,-0.89719373,0.44083616,0.3855133,1.37854,9.662842,-0.14581299,0.07272339,-0.003356934
2022/12/14 18:46,20720,0.1350498,0.9208683,0.1949234,-0.22641101,0.437433,9.794273,0.020193381,-0.014943291,-0.897494,0.44031063,-0.13581848,1.3414307,10.202133,-0.11917114,0.07698059,0.04244995
2022/12/14 18:46,20760,0.20328972,1.2563059,0.63353825,-0.24823676,0.43545514,9.793832,0.021172987,-0.014326559,-0.8967326,0.4418337,-0.04664612,1.7580261,10.575027,0.045944214,0.025848389,0.20649719
2022/12/14 18:46,20800,0.2869518,1.3540589,0.2102251,-0.25029954,0.48710784,9.791347,0.022497855,-0.016556673,-0.8949466,0.44529805,0.030578613,1.6502838,10.0099945,0.028900146,0.03010559,0.2341919
2022/12/14 18:46,20841,0.94273305,0.9711215,2.2519302,-0.24034244,0.44267547,9.793705,0.021087619,-0.014673865,-0.8933205,0.4486853,0.787735,1.2420807,12.553833,-0.24168396,0.005615234,0.17240906
2022/12/14 18:46,20880,-0.037802696,-0.8888952,2.4635553,-0.26762533,0.34996313,9.796749,0.02020596,-0.009825515,-0.8934452,0.44860995,-0.4273224,-0.8941498,12.563416,-0.2768402,0.14729309,-0.007629395
2022/12/14 18:46,20920,0.0817714,-1.6878595,3.6177378,-0.32388422,0.28671682,9.797106,0.020929791,-0.005394809,-0.89390033,0.44774443,-0.06997681,-1.3442688,13.13623,0.23661804,0.097213745,0.11381531
2022/12/14 18:46,20960,0.58869505,-1.2725604,-0.24743748,-0.32965368,0.4637605,9.79013,0.025118638,-0.012335207,-0.89343554,0.44831893,0.11616516,-0.7786255,9.2229,0.58283997,-0.03060913,0.097839355
2022/12/14 18:46,21000,-0.8856112,-1.6428063,-2.2608452,-0.30839393,0.6448046,9.780568,0.028835302,-0.022323813,-0.8928326,0.44891,-1.2114258,-0.9976959,7.493698,0.393219,-0.045532227,0.09358215
2022/12/14 18:46,21041,-0.3457466,-2.009315,-2.461565,-0.30602187,0.67875606,9.778345,0.02953328,-0.023894643,-0.89228743,0.4498666,-0.49316406,-1.2724304,7.679245,-0.1585846,0.026916504,0.11381531
2022/12/14 18:46,21080,0.55581045,-1.5349777,-0.22991371,-0.33963212,0.5534614,9.785127,0.028176261,-0.017419953,-0.89258146,0.4496676,0.1981659,-0.8534546,9.962112,-0.29174805,0.13450623,-0.054489136
2022/12/14 18:46,21120,-0.1820535,-1.3317907,0.9103193,-0.38384214,0.4682565,9.787942,0.028196767,-0.012603386,-0.8939311,0.44713905,-0.83073425,-0.88816833,10.7725525,-0.03715515,0.09509277,-0.113082886
2022/12/14 18:46,21160,-0.9690751,-1.2183734,0.13860512,-0.41591096,0.47394776,9.786356,0.029766653,-0.012191029,-0.89478356,0.44533995,-1.331131,-0.582901,10.044113,0.106658936,0.046081543,0.039245605
2022/12/14 18:46,21200,-0.031412065,-0.42974263,-0.42430973,-0.43841106,0.5332823,9.782321,0.032164585,-0.014349569,-0.8941195,0.4464413,-0.32377625,0.25924683,9.325256,0.2259674,0.031173706,0.13618469
2022/12/14 18:46,21241,0.43494454,-0.587758,-1.3914976,-0.43957254,0.5983026,9.778507,0.033779923,-0.017338075,-0.8936693,0.44711688,0.002441406,-0.06037903,8.472321,0.04273987,0.020523071,-0.001235962
2022/12/14 18:46,21280,0.34438115,-0.8185092,-0.4691391,-0.4490956,0.5666674,9.779959,0.03339075,-0.015682887,-0.89476013,0.44502065,-0.12684631,-0.18008423,9.395889,-0.12237549,0.03970337,-0.0821991
2022/12/14 18:46,21320,0.033659726,-0.55075943,-0.09571743,-0.4627552,0.49428692,9.783247,0.032325603,-0.012176834,-0.8963684,0.4419621,-0.5105133,-0.06455994,9.855576,-0.2012024,0.03010559,-0.11947632
2022/12/14 18:46,21360,-0.23247653,-0.7527857,0.90522957,-0.45950952,0.40524936,9.787493,0.030136826,-0.008278622,-0.8979777,0.4389297,-0.64219666,-0.30996704,10.968277,-0.14686584,-0.07002258,-0.07685852
2022/12/14 18:46,21400,-0.20699045,-0.51257336,0.03415394,-0.43498394,0.4000313,9.788828,0.028869877,-0.008672572,-0.8992808,0.4363317,-0.6954651,-0.061569214,9.680801,0.0917511,-0.060440063,-0.061950684
2022/12/14 18:46,21441,0.22644147,0.072849005,-1.1857071,-0.41474012,0.39267612,9.790005,0.027760737,-0.008834362,-0.9000737,0.43476266,-0.12565613,0.53518677,8.790161,-0.16818237,-0.062576294,0.006225586
2022/12/14 18:46,21481,0.34585038,0.22965896,0.20721626,-0.38116926,0.31231302,9.794261,0.02442061,-0.005939763,-0.9011009,0.43288058,-0.18251038,0.51483154,10.202133,-0.16711426,-0.0945282,-0.12800598
2022/12/14 18:46,21520,-0.75991356,-0.066019416,-0.33484745,-0.35456827,0.27706456,9.796321,0.022398416,-0.004995463,-0.90285933,0.42932323,-1.1503601,0.36219788,9.492859,-0.03501892,-0.08174133,-0.09710693
2022/12/14 18:46,21560,-0.30083087,0.6392212,-1.0333815,-0.34001914,0.25697336,9.797384,0.021278795,-0.004431755,-0.90375173,0.42750487,-0.52249146,1.0068359,8.915848,-0.12237549,-0.023147583,-0.04171753
2022/12/14 18:46,21600,0.13160917,0.9824194,-0.53172016,-0.3364119,0.19587994,9.798921,0.019776111,-0.001732617,-0.9046217,0.42575276,-0.1459961,1.1750336,9.4683075,-0.22782898,-0.022094727,-0.09390259
2022/12/14 18:46,21640,0.20926428,0.94178796,0.2249012,-0.32943916,0.12584107,9.800307,0.017936857,0.00129232,-0.9059614,0.42297825,-0.21543884,1.0523376,10.16922,-0.14154053,-0.026351929,-0.12905884
2022/12/14 18:46,21680,-0.0461109,1.1098596,-0.06177044,-0.30355757,0.10087576,9.801432,0.016208462,0.00183055,-0.9074676,0.41980526,-0.3518982,1.243866,9.845398,-0.053131104,-0.08920288,-0.10882568
2022/12/14 18:46,21720,0.062126428,1.2439102,0.07548618,-0.27260357,0.090685345,9.802442,0.014561859,0.001598869,-0.90865624,0.41728792,-0.19448853,1.3516083,9.981873,-0.03715515,-0.08280945,-0.0907135
2022/12/14 18:46,21761,0.3398445,1.5947046,0.06518364,-0.23342006,0.104873724,9.80331,0.013048064,6.81E-05,-0.90993476,0.4145461,0.08444214,1.7418671,9.915436,0.038482666,-0.0987854,-0.1652832
2022/12/14 18:46,21800,-0.48054296,1.323466,0.4414854,-0.19447686,0.14702855,9.803619,0.01212111,-0.002759791,-0.911596,0.41089922,-0.6739197,1.5000458,10.321838,0.14181519,-0.101989746,-0.115219116
2022/12/14 18:46,21840,0.25759497,1.5037318,0.5580721,-0.16519313,0.20760544,9.803061,0.012015045,-0.006217039,-0.9125244,0.40879846,0.1293335,1.5958099,10.680969,-0.003067017,-0.07322693,-0.14930725
2022/12/14 18:46,21881,0.028050303,-0.027680337,2.4922,-0.1616555,0.15670529,9.804065,0.010767204,-0.003981654,-0.9147933,0.4037591,-0.39619446,-0.28483582,12.829178,-0.30133057,0.08444214,-0.35809326
2022/12/14 18:46,21920,-1.4838891,-2.264295,3.8864832,-0.23829472,0.064308956,9.803544,0.01245446,0.001810051,-0.9178772,0.39666498,-1.9398499,-2.3396454,13.563004,0.09387207,0.23890686,-0.23345947
2022/12/14 18:46,21960,-1.558262,-2.1318214,0.38153458,-0.30614063,0.24579726,9.798788,0.019298816,-0.005329847,-0.9181116,0.39581588,-1.7112122,-1.7889862,9.531158,0.71066284,-0.010375977,0.23632812
2022/12/14 18:46,22000,0.29511374,-1.601654,-2.043789,-0.29893094,0.3815055,9.794665,0.02177073,-0.011707247,-0.91573244,0.40102747,0.34780884,-1.1545258,8.07489,0.010787964,0.01838684,0.31941223
2022/12/14 18:46,22041,1.4672515,-1.4129934,0.76368237,-0.30432224,0.2964048,9.797444,0.020302122,-0.007561736,-0.9146285,0.40371448,1.166626,-1.0785065,10.882095,-0.17883301,0.089767456,0.06375122
2022/12/14 18:46,22080,1.0596952,-1.0784565,0.12466049,-0.31097806,0.29775473,9.7971945,0.020635614,-0.007501372,-0.91488993,0.40310585,0.67700195,-0.7702484,9.883102,0.18229675,-0.027420044,-0.035324097
2022/12/14 18:46,22120,0.001120359,-1.4330624,-0.73510647,-0.2824856,0.37388203,9.795448,0.02085418,-0.011672808,-0.9154714,0.40167275,-0.3447113,-1.0545654,9.116959,0.25047302,-0.062576294,-0.020401001
2022/12/14 18:46,22160,-0.6847452,-1.4323229,-1.5372105,-0.2673119,0.42737186,9.793686,0.021244152,-0.014480174,-0.9153861,0.40175533,-0.8630676,-0.9575958,8.487289,0.0448761,-0.041259766,0.12979126
2022/12/14 18:46,22201,0.50689787,-0.8553078,-0.5395336,-0.25393397,0.40478757,9.795002,0.020197352,-0.013637804,-0.91419035,0.40455168,0.31248474,-0.3829956,9.519791,-0.066970825,-0.019958496,0.17347717
2022/12/14 18:46,22240,0.7552819,-0.6994822,0.16767693,-0.22706288,0.38424286,9.796489,0.018552965,-0.013186627,-0.9131944,0.40688795,0.5435333,-0.38658142,10.0914,0.008651733,-0.05937195,0.12767029
2022/12/14 18:46,22280,0.64171946,-0.9312104,-0.08469868,-0.1964025,0.39350328,9.796783,0.017421188,-0.014096755,-0.91280663,0.40777674,0.34780884,-0.5224457,9.804703,0.059783936,-0.041259766,0.034988403
2022/12/14 18:46,22320,-0.083188236,-0.7972311,-0.43409538,-0.1823469,0.41177183,9.796304,0.017055586,-0.015381526,-0.9128145,0.4077281,-0.390213,-0.34169006,9.442581,0.06724548,-0.02848816,0.045639038
2022/12/14 18:46,22361,0.043282688,-0.23078787,-0.79853916,-0.17523436,0.41864035,9.796144,0.016889079,-0.015826168,-0.9122496,0.40898028,-0.12385559,0.22154236,9.183395,-0.036087036,-0.007171631,0.107421875
2022/12/14 18:46,22400,0.24381314,0.08323842,-0.07546806,-0.17827556,0.3873532,9.797376,0.016405873,-0.014273535,-0.91145974,0.41081414,0.09941101,0.42564392,9.965103,-0.10533142,0.031173706,0.121276855
2022/12/14 18:46,22440,0.36083317,-0.38908318,0.3108654,-0.18355925,0.3574482,9.798414,0.016044531,-0.012746824,-0.91083556,0.41226047,0.16703796,-0.06636047,10.24762,-0.030761719,0.020523071,0.095703125
2022/12/14 18:46,22480,0.45015305,-0.4450804,-0.46497345,-0.1928688,0.34477735,9.798689,0.016224679,-0.011943043,-0.9103518,0.41334456,0.26939392,-0.08909607,9.367157,-0.082962036,0.050354004,0.11381531
2022/12/14 18:46,22520,0.78887993,-0.13635606,0.10908413,-0.2053198,0.2677876,9.800843,0.015188778,-0.008086436,-0.9098914,0.41448945,0.5525055,0.15510559,10.242233,-0.26724243,0.03543091,0.07121277
2022/12/14 18:46,22560,0.2865619,0.16697007,0.5188999,-0.20950826,0.19117594,9.802548,0.013763736,-0.004440315,-0.9098647,0.41465297,-0.0370636,0.48251343,10.291916,-0.09361267,0.014129639,0.039245605
2022/12/14 18:46,22601,0.21784884,0.834339,-0.43664837,-0.21141793,0.17641243,9.802783,0.013543361,-0.0037029,-0.90950274,0.41546068,0.066482544,1.1115875,9.41684,-0.061645508,-0.001846314,0.09890747
2022/12/14 18:46,22640,0.45875755,1.0989897,-0.3141508,-0.2071191,0.16065708,9.803146,0.013025569,-0.003074644,-0.9088746,0.4168548,0.2771759,1.3091125,9.613754,-0.039276123,0.01626587,0.088256836
2022/12/14 18:46,22680,0.3065939,1.1346328,-0.6144514,-0.21105431,0.1773465,9.802774,0.01355602,-0.00371863,-0.90841734,0.41782814,0.06947327,1.2881622,9.244461,0.043807983,0.017318726,0.060546875
2022/12/14 18:46,22720,0.001949564,0.9168764,-0.98402214,-0.22617856,0.20019183,9.801997,0.014746983,-0.004443998,-0.9080935,0.41848406,-0.22261047,1.1109924,8.894302,0.008651733,0.07698059,0.07759094
2022/12/14 18:46,22761,0.26156837,1.0248051,-0.88490963,-0.2733961,0.19693092,9.80086,0.016870985,-0.003252225,-0.9072432,0.42025542,0.11557007,1.2893524,9.122345,-0.07975769,0.17605591,0.16494751
2022/12/14 18:46,22800,1.0867697,1.4498291,0.0505085,-0.34693375,0.16136712,9.799183,0.019512193,2.02E-06,-0.9065022,0.42175,0.6572571,1.6610565,10.197342,-0.1543274,0.16752625,0.0541687
2022/12/14 18:46,22840,-0.04176408,1.4710326,1.4678411,-0.36431044,0.18965654,9.798046,0.020924969,-9.28E-04,-0.9063903,0.42192164,-0.4877777,1.7508392,11.277725,0.24833679,0.06100464,0.10848999
2022/12/14 18:46,22880,-0.019806862,1.5551903,0.60494995,-0.38665253,0.28570268,9.794859,0.024038265,-0.004831982,-0.9053298,0.42400086,-0.41654968,1.710144,10.858154,0.02357483,0.06100464,0.15322876
2022/12/14 18:46,22920,-0.04039839,0.13960272,3.1994267,-0.41218516,0.25940248,9.79455,0.02465344,-0.003027651,-0.9046794,0.42536828,-0.32138062,-0.010696411,13.391815,-0.15539551,0.09616089,0.14471436
2022/12/14 18:46,22960,0.6319542,-1.9319859,4.7147512,-0.4460009,0.23214252,9.793752,0.025622688,-0.001046615,-0.9048427,0.4249731,0.18559265,-1.8231049,14.57814,0.28988647,0.09295654,-0.002304077
2022/12/14 18:46,23001,0.13913509,-2.3098025,0.7567072,-0.44371417,0.48161942,9.78476,0.030898105,-0.012702117,-0.90581423,0.42235598,-0.3734436,-1.7273407,9.955536,0.88749695,-0.15098572,0.005157471
2022/12/14 18:46,23040,0.13853776,-1.7013068,-2.9806309,-0.34459227,0.7679117,9.770464,0.03248953,-0.028096994,-0.9056257,0.42189702,-0.13642883,-0.69184875,6.5743256,0.55407715,-0.2394104,0.10209656
2022/12/14 18:46,23080,0.27411732,-1.1615605,-3.200284,-0.30573058,0.79501027,9.769589,0.031269666,-0.030195804,-0.905701,0.42168257,-0.28126526,-0.3835907,7.287201,-0.31518555,0.019454956,-0.09603882
2022/12/14 18:46,23120,-1.0757009,-1.8191633,0.27177906,-0.3517456,0.58258575,9.783009,0.028739905,-0.019478312,-0.9075913,0.41841686,-1.434082,-1.2640533,10.460709,-0.5218506,0.11959839,-0.15995789
2022/12/14 18:46,23160,-0.38943446,-1.6449538,1.5577755,-0.39026675,0.46909744,9.787646,0.02807272,-0.013447384,-0.90846246,0.41680568,-0.6805115,-1.0360107,11.363922,0.12263489,0.026916504,0.01473999
2022/12/14 18:46,23200,0.4394093,-0.55954987,-1.3512974,-0.38187605,0.57012045,9.782614,0.029830867,-0.018321132,-0.90847313,0.41647446,0.2664032,0.16886902,8.289764,0.26644897,-0.07322693,0.031784058
2022/12/14 18:46,23241,1.0367123,-0.3362648,-1.4179544,-0.35678542,0.58027536,9.782964,0.028845472,-0.019381164,-0.90928507,0.4147204,0.4262085,0.17964172,8.981689,-0.23422241,-7.78E-04,-0.2121582
2022/12/14 18:46,23280,-0.87772715,-0.95494425,1.128972,-0.37802666,0.47796798,9.787699,0.027694002,-0.013968308,-0.91205657,0.40888965,-1.5184784,-0.53382874,11.049088,-0.07443237,0.07272339,-0.24624634
2022/12/14 18:46,23320,-1.2638853,-0.8410365,-0.05600643,-0.41329056,0.49500698,9.785425,0.029277634,-0.014238548,-0.91306305,0.40651682,-1.5903015,-0.2788391,9.732269,0.15672302,0.023712158,0.001968384
2022/12/14 18:46,23361,0.04062119,-0.044527173,-0.97455883,-0.43116075,0.5303479,9.782803,0.0311046,-0.015761068,-0.91286355,0.40677297,-0.3620758,0.52500916,8.912857,0.002258301,0.05354309,0.031784058
2022/12/14 18:46,23400,0.12201637,-0.270746,-0.37476826,-0.45736814,0.48654482,9.783889,0.031401712,-0.013207937,-0.91331106,0.4058354,-0.5853424,0.06173706,9.941772,-0.16497803,0.07058716,-0.075805664
2022/12/14 18:46,23440,-0.4298818,-0.43269807,0.42582417,-0.4847954,0.4539339,9.784135,0.031989187,-0.011163659,-0.9138777,0.40457326,-0.8899994,0.06651306,10.238647,0.045944214,0.04396057,0.022201538
