Timestamp,Milliseconds,linear-x,linear-y,linear-z,gravity-x,gravity-y,gravity-z,rotation-x,rotation-y,rotation-z,rotation-w,acc-x,acc-y,acc-z,gyr-x,gyr-y,gyr-z
2022/12/8 19:48,1,-0.22434488,0.08253777,0.10789585,0.3675424,1.0182168,9.746718,0.037510943,0.040602464,0.9198741,0.38829896,0.27537537,1.1283417,9.9734955,0.010986328,0.048965454,0.10369873
2022/12/8 19:48,42,-0.014365107,0.06445658,-0.34625816,0.3167287,1.0362426,9.746603,0.034820426,0.042649258,0.92027336,0.38738298,0.29153442,1.1319427,9.456345,-0.035888672,0.12246704,-0.018814087
2022/12/8 19:48,81,-0.01487571,-0.053750515,0.14828968,0.26749107,1.0286201,9.748885,0.032451157,0.04351088,0.9203198,0.38738245,0.24604797,0.9799042,9.983658,0.047210693,0.14483643,0.014221191
2022/12/8 19:48,121,0.11897901,-0.049208045,-0.08190155,0.19395982,1.0429419,9.7491045,0.029422408,0.04544989,0.9200627,0.3880119,0.3053131,1.0128326,9.783157,0.019500732,0.17041016,-0.09336853
2022/12/8 19:48,162,-0.19988225,0.06268096,-0.20547676,0.14223784,1.0417249,9.750126,0.026910089,0.045937553,0.91972953,0.3889257,-0.053222656,1.0912323,9.622742,-0.10620117,0.04257202,-0.010284424
2022/12/8 19:48,201,0.0859537,-0.09289014,0.295269,0.13026568,0.998116,9.754854,0.025878048,0.04421832,0.91986334,0.3888785,0.23587036,0.94039917,10.187164,-0.054000854,0.013809204,0.003570557
2022/12/8 19:48,241,0.2050744,-0.053533316,0.09981346,0.13981374,0.97708976,9.75685,0.026063485,0.042797104,0.9198282,0.3891082,0.34062195,0.9350128,9.935776,-0.06251526,-0.036254883,-0.043304443
2022/12/8 19:48,282,0.015193641,-0.04650253,0.27115726,0.1313206,0.9701747,9.757659,0.025328882,0.04338979,0.9193898,0.3901258,0.20175171,0.9290314,10.130905,0.06851196,0.048965454,-0.055023193
2022/12/8 19:48,321,-0.02035521,0.03503275,-0.21417141,0.12474691,0.99018484,9.755734,0.025872117,0.044062853,0.9189554,0.39103726,0.12394714,1.041565,9.649078,0.004592896,-0.02027893,-0.055023193
2022/12/8 19:48,362,-0.09829657,-0.011305451,0.07756424,0.14176612,0.99083996,9.755436,0.027020881,0.04330254,0.91837776,0.3923991,0.054519653,0.9601593,9.937576,-0.04121399,-0.15769958,-0.080596924
2022/12/8 19:48,401,-0.32304597,0.11575198,-0.17195034,0.19896562,0.96507674,9.757019,0.028724303,0.04084094,0.91793704,0.39357156,-0.04244995,1.0948334,9.817261,-0.07104492,0.001022339,0.009948731
2022/12/8 19:48,442,0.15496565,-0.19568586,0.3078804,0.17064919,0.98319626,9.755746,0.027733415,0.0432055,0.9179844,0.39327952,0.29034424,0.88594055,10.093201,0.16545105,0.060684204,-0.024139404
2022/12/8 19:48,481,-0.08685355,0.10274303,-0.6964216,0.18172146,0.9984325,9.754,0.028855233,0.042170797,0.9177946,0.3937539,0.12155151,1.1103973,9.226501,-0.19779968,-0.08206177,-0.026260376
2022/12/8 19:48,521,-0.20314714,0.108380675,0.5173063,0.19228351,0.9318676,9.760381,0.027596824,0.039476544,0.91787845,0.3939278,-0.08255005,0.9966736,10.443954,-0.042282104,-0.03945923,0.05256653
2022/12/8 19:48,562,0.23237942,-0.07305676,0.083745,0.22351211,0.9339393,9.759519,0.02935384,0.039541323,0.9178291,0.3939093,0.41604614,0.8715668,9.948349,0.1026001,0.04576111,-0.061416626
2022/12/8 19:48,602,-0.062463596,-0.054588914,0.1620264,0.18446979,0.9683503,9.75698,0.028175525,0.041966762,0.91750157,0.39450702,0.091033936,0.93322754,10.041718,0.057861328,0.035110474,-0.009216309
2022/12/8 19:48,642,0.17627783,-0.046797693,-0.13802624,0.20202446,0.9828321,9.755184,0.029168898,0.04274008,0.9170687,0.39535737,0.38790894,0.9535675,9.749634,0.13136292,0.097961426,-0.08378601
2022/12/8 19:48,681,-0.45519236,0.28651512,-0.7676277,0.117971316,1.0443783,9.750166,0.025760226,0.047184143,0.91731703,0.39451182,-0.41654968,1.2881622,9.161255,-0.010314941,0.17359924,0.13246155
2022/12/8 19:48,722,0.002000541,-0.023421764,0.13913155,0.09440665,1.0040942,9.754653,0.024696998,0.044084232,0.91816586,0.39296067,0.09222412,1.0134277,10.038727,-0.18608093,-0.10656738,0.028060913
2022/12/8 19:48,761,0.21546352,-0.15703654,0.599226,0.11706782,0.97128636,9.75773,0.024902426,0.043923795,0.91822475,0.39282805,0.34481812,0.82966614,10.389481,0.13882446,0.08944702,-0.019866943
2022/12/8 19:48,801,-0.19599344,0.26324916,-0.5951481,0.07941228,1.0160254,9.753552,0.023670798,0.046271004,0.9182919,0.3924775,-0.064590454,1.2923584,9.27858,-0.05293274,0.11288452,0.09623718
2022/12/8 19:48,842,0.29337943,-0.22234559,-0.05611992,0.06780927,0.99848944,9.75545,0.023248587,0.045189615,0.9189935,0.39098385,0.30171204,0.7943573,9.77298,-0.05718994,-0.05543518,0.003570557
2022/12/8 19:48,881,-0.06527919,-0.001494885,-0.54406166,0.081346445,0.9619812,9.759014,0.02280669,0.043304313,0.9191369,0.3908862,-0.003540039,0.9811096,9.276779,-0.13282776,0.072402954,0.025939941
2022/12/8 19:48,922,-0.08529052,-0.07196385,0.004386902,0.038293593,0.92392546,9.762955,0.019636372,0.042618267,0.919294,0.39076418,-0.045440674,0.836853,9.85318,-0.05079651,0.10542297,-0.004959106
2022/12/8 19:48,961,-0.08254904,-0.038790345,-0.28620815,0.003854105,0.8826995,9.766843,0.01720514,0.04047136,0.91930014,0.39109242,-0.06997681,0.83206177,9.5550995,-0.22337341,0.03404236,-0.026260376
2022/12/8 19:48,1001,0.1430242,-0.05196905,0.38795376,3.74E-04,0.79395354,9.774458,0.015588844,0.03639927,0.9195392,0.39099836,0.14489746,0.7476654,10.256012,-0.16584778,-0.02027893,0.001434326
2022/12/8 19:48,1042,-0.0515128,0.17915028,0.6063652,0.017568251,0.7518947,9.777767,0.016169636,0.03480136,0.91982394,0.3904502,-0.019104004,0.9703369,10.458313,0.00352478,-0.07460022,0.05470276
2022/12/8 19:48,1081,0.20303221,0.09504032,0.053282738,0.038737662,0.76410353,9.77676,0.017063387,0.035435874,0.91993654,0.39008957,0.22869873,0.86138916,9.91243,0.055725098,0.02659607,-0.020935059
2022/12/8 19:48,1122,-0.21022992,0.034637332,-0.2533598,0.026849264,0.77927494,9.775602,0.016661113,0.03607342,0.9201593,0.38952285,-0.14360046,0.8117218,9.620941,-0.011383057,0.022338867,0.08239746
2022/12/8 19:48,1161,0.26241565,-0.3173207,0.15507317,0.013619537,0.783711,9.775274,0.016004832,0.036989275,0.9206245,0.3883634,0.26400757,0.5016632,10.0112,0.07170105,0.060684204,0.005691528
2022/12/8 19:48,1202,-0.06254135,0.02766198,-0.20612144,-0.004699975,0.80076444,9.773901,0.01560727,0.037711255,0.9205499,0.38848695,-0.08314514,0.8745575,9.683792,-0.03163147,0.014877319,-0.00177002
2022/12/8 19:48,1241,0.07310908,-0.061853647,0.11805725,-0.011081639,0.78884846,9.774865,0.015067826,0.03728719,0.92054963,0.38854983,0.03895569,0.74887085,10.03334,-0.010314941,0.024459839,-0.01348877
2022/12/8 19:48,1282,-0.28672147,0.0685451,0.38363075,-0.01681546,0.7820653,9.775401,0.014743996,0.037023883,0.9207381,0.3881407,-0.32855225,0.8452301,10.2703705,-0.026306152,-0.033065796,0.05895996
2022/12/8 19:48,1321,0.25806025,0.016074896,0.28024197,-0.009801243,0.7877769,9.774953,0.015022134,0.03792466,0.92094785,0.387545,0.2490387,0.78778076,10.173401,0.12710571,0.08944702,-0.010284424
2022/12/8 19:48,1362,-0.020696457,-0.015254378,-0.28649902,-0.04727841,0.8475126,9.769845,0.01456171,0.041149836,0.9207357,0.38773754,-0.09931946,0.85061646,9.580841,0.094070435,0.021270752,-7.02E-04
2022/12/8 19:48,1401,0.2919783,-0.16529542,-0.3812523,-0.04634159,0.85544837,9.769158,0.014607822,0.040686518,0.92068005,0.3879169,0.20953369,0.7692261,9.401276,-0.100860596,0.009552002,-0.045440674
2022/12/8 19:48,1441,-0.14538446,-0.08082634,0.16752243,-0.045043584,0.8242808,9.771843,0.014340185,0.039503664,0.92035747,0.38881356,-0.20227051,0.7740021,10.019577,-0.009262085,-0.035186768,-0.026260376
2022/12/8 19:48,1481,0.09186585,-0.05519116,0.25298023,-0.038157076,0.82516193,9.771798,0.01469702,0.03974546,0.9203083,0.388892,0.0539093,0.76683044,10.1285095,0.0599823,-0.004302979,-0.030532837
2022/12/8 19:48,1521,-0.21251115,0.08587819,-0.3094988,-0.036655407,0.84112436,9.770443,0.015095181,0.040161073,0.9199763,0.38961884,-0.2938385,0.970932,9.461731,-0.04547119,-0.06715393,-0.018814087
2022/12/8 19:48,1562,0.016960602,8.05E-04,-0.15573215,-0.010221601,0.8035389,9.773669,0.01537786,0.03729969,0.9201401,0.38950542,4.58E-05,0.8159027,9.700546,-0.12004089,-0.011764526,0.002502441
2022/12/8 19:48,1602,-0.24962656,0.050200343,-0.080929756,-0.012983402,0.7605266,9.777106,0.014343023,0.03583688,0.92026037,0.389398,-0.27288818,0.8452301,9.8076935,-0.09767151,0.031921387,0.04084778
2022/12/8 19:48,1641,-0.016862717,0.003468931,0.30646706,-0.021482931,0.7300808,9.779412,0.013187542,0.03387706,0.92080826,0.38831767,-0.055618286,0.6872101,10.275162,-0.060394287,-0.011764526,0.038711548
2022/12/8 19:48,1681,0.089559264,-0.026267886,0.28147984,-0.013353488,0.7116702,9.780784,0.013590289,0.033871267,0.92097014,0.38792017,0.110183716,0.6872101,10.142273,0.039749146,0.001022339,0.017410278
2022/12/8 19:48,1722,0.28786683,-0.08909482,-0.04095936,-0.01797695,0.72788525,9.779584,0.013526192,0.03481551,0.9209582,0.3878671,0.27119446,0.6542969,9.825043,0.037612915,0.024459839,-0.02519226
2022/12/8 19:48,1761,0.028825864,0.006753087,-0.04144764,-0.017517215,0.7305121,9.779388,0.013726019,0.034509417,0.92079717,0.38826957,0.004241943,0.75245667,9.861557,-0.022033691,-0.016021729,-0.017745972
2022/12/8 19:48,1802,-0.024176963,0.005553782,-0.010926247,-0.016888926,0.7325785,9.779235,0.013705645,0.03504067,0.9205687,0.3887641,-0.10948181,0.76683044,9.840012,0.049331665,0.021270752,-0.022003174
2022/12/8 19:48,1842,-0.03969171,-0.01912433,-0.0633688,-0.021378567,0.74017996,9.778653,0.013732725,0.034934778,0.920662,0.38855177,-0.045440674,0.7189331,9.831039,-0.056121826,-0.03199768,0.023803711
2022/12/8 19:48,1881,0.03491708,-0.11223084,0.33284187,-0.012294154,0.72672796,9.779677,0.013884562,0.0345575,0.9206974,0.38849628,0.019195557,0.6656647,10.214706,0.05253601,-0.004302979,-0.022003174
2022/12/8 19:48,1922,-0.1021052,0.045891106,-0.14351654,-0.011890131,0.7538792,9.777623,0.014503023,0.03581812,0.9206059,0.3885763,-0.09692383,0.8344574,9.679001,0.042938232,-0.038391113,3.66E-04
2022/12/8 19:48,1961,-0.06963305,0.040593266,-0.17871094,-0.006873155,0.7615142,9.777037,0.014716835,0.035757877,0.9207853,0.3881484,-0.08135986,0.83984375,9.6418915,-0.04121399,-0.007492065,0.030197144
2022/12/8 19:48,2002,-0.08216867,0.01015377,0.04842758,-0.012249393,0.75022125,9.777904,0.014133734,0.035520103,0.9210947,0.3874572,-0.108291626,0.75245667,9.897476,-0.00819397,0.020202637,0.036590576
2022/12/8 19:48,2041,0.07939773,-0.0681383,0.012513161,-0.011017312,0.73835754,9.778809,0.0140201,0.034631565,0.92141527,0.386779,0.066482544,0.6752472,9.851379,-0.05079651,-0.002166748,0.03552246
2022/12/8 19:48,2082,0.08570728,-0.11254215,0.2154789,-0.004501469,0.72677267,9.779681,0.014252514,0.034522466,0.9215528,0.38645247,0.07546997,0.6183777,10.047714,0.06211853,-0.003234863,-7.02E-04
2022/12/8 19:48,2121,0.051881358,-0.049579144,-0.07680702,-0.007754182,0.746637,9.778183,0.014380943,0.035347078,0.92158043,0.38630718,0.04434204,0.6860199,9.778961,0.002456665,0.003158569,0.014221191
2022/12/8 19:48,2161,0.06121811,0.033583283,0.08958721,4.84E-04,0.74619955,9.778219,0.014837001,0.03514008,0.9215144,0.38646644,0.07307434,0.77760315,9.966904,0.008850098,-0.017089844,-0.012420654
2022/12/8 19:48,2202,-0.0265656,0.07542789,-0.23140526,0.004090282,0.7501506,9.777917,0.014977301,0.035130415,0.92157733,0.38631177,0.02279663,0.77160645,9.644882,-0.040145874,0.003158569,0.030197144
2022/12/8 19:48,2241,0.11457081,-0.063724756,0.11357212,0.012462073,0.72921175,9.779492,0.015004326,0.03391786,0.92167336,0.38618994,0.14608765,0.6483154,9.986664,-0.032684326,-0.016021729,-0.002822876
2022/12/8 19:48,2282,0.018025849,-0.026276767,0.113842964,0.022500213,0.71872324,9.7802515,0.015285784,0.033354737,0.92163604,0.38631698,0.046142578,0.7033844,10.010605,0.005661011,-0.02986145,-0.016677856
2022/12/8 19:48,2322,0.041841026,-0.019822598,0.079527855,0.027954763,0.72057897,9.780101,0.015475148,0.03349462,0.92145497,0.38672912,0.090423584,0.7117615,9.946548,0.024841309,0.015945435,-0.017745972
2022/12/8 19:48,2361,-0.047218822,0.04949844,-0.09213543,0.027229613,0.73286974,9.77919,0.015959179,0.033996403,0.9213975,0.38680246,-0.04724121,0.7823944,9.882507,0.016311646,-0.033065796,3.66E-04
2022/12/8 19:48,2401,0.016596008,0.04942447,-0.1419878,0.035794057,0.7351836,9.778989,0.01605912,0.033756677,0.9213226,0.38699773,0.029968262,0.7859802,9.736465,-0.034820557,0.011672974,0.001434326
2022/12/8 19:48,2442,-0.002881285,-0.048348665,0.11662388,0.027806154,0.72352,9.779884,0.015597164,0.03335634,0.9214588,0.38672706,0.006027222,0.6890106,9.996826,-0.013519287,-0.002166748,0.005691528
2022/12/8 19:48,2481,0.058529295,-0.025985599,0.034280777,0.037812825,0.7123799,9.780668,0.015866004,0.032688685,0.92144096,0.3868156,0.10119629,0.7249298,9.897476,-0.027359009,-0.017089844,-0.022003174
2022/12/8 19:48,2522,0.047243595,-0.03538823,0.2874136,0.03768586,0.7050157,9.781202,0.01564316,0.032583956,0.92146015,0.38678777,0.037750244,0.6716614,10.173401,0.05253601,0.011672974,-0.040115356
2022/12/8 19:48,2561,-0.23332126,0.09468722,-0.23779964,0.027173737,0.7276727,9.779577,0.015730053,0.03383519,0.9213389,0.38696554,-0.20465088,0.83206177,9.702347,-0.013519287,-0.040512085,0.018478394
2022/12/8 19:48,2602,0.05581963,-0.080281794,0.06514835,0.036651287,0.7146269,9.780509,0.015815817,0.03253739,0.92153597,0.38660404,0.12214661,0.61180115,10.001022,-0.027359009,-0.005371094,-0.007095337
2022/12/8 19:48,2641,-0.06730135,0.03168589,0.010359764,0.037152465,0.714564,9.780511,0.01583435,0.0330216,0.9214812,0.38669276,-0.029281616,0.7686157,9.905258,0.028030396,0.007415772,-7.02E-04
2022/12/8 19:48,2681,-0.063247375,0.030229151,0.09426403,0.0350847,0.71782196,9.780281,0.015899936,0.032895908,0.9216814,0.38622338,-0.026290894,0.7536621,10.008209,-0.023101807,-0.038391113,0.023803711
2022/12/8 19:48,2722,-0.08579425,0.010897279,0.05657959,0.043138016,0.7210476,9.780011,0.01629167,0.033541165,0.9217433,0.3860037,-0.04005432,0.7536621,9.921417,0.0834198,0.025527954,0.016342163
2022/12/8 19:48,2761,-0.00182204,0.010361135,-0.23514938,0.029380424,0.74951077,9.777922,0.016133714,0.03471388,0.92199624,0.38530198,0.043136597,0.77101135,9.688583,-0.002868652,0.006347656,0.049362183
2022/12/8 19:48,2802,0.036834817,-0.054687083,0.14909935,0.036434367,0.74005395,9.778619,0.016254997,0.03414912,0.9222831,0.38466012,0.05152893,0.68182373,10.034546,0.020568848,0.009552002,0.019546509
2022/12/8 19:48,2841,0.102392934,-0.05975002,-0.012800217,0.03344012,0.7497747,9.777889,0.01633586,0.03478052,0.92249995,0.38407978,0.14369202,0.70936584,9.878326,0.033355713,0.020202637,0.012084961
2022/12/8 19:48,2881,0.010690481,0.062379777,0.01479435,0.0341667,0.7578587,9.777263,0.016590092,0.03514775,0.92246026,0.38413078,0.03416443,0.84942627,9.95314,0.024841309,-0.014953613,0.001434326
2022/12/8 19:48,2922,-0.056902498,0.11922872,-0.15361118,0.03471696,0.7779406,9.775683,0.016836744,0.03629301,0.9224528,0.38403144,-0.002349854,0.88772583,9.682587,0.032287598,0.032989502,0.032318115
2022/12/8 19:48,2962,-0.00816953,-0.06702483,0.05613327,0.022354925,0.78493816,9.775161,0.016407574,0.036477566,0.92271334,0.3834061,-0.001754761,0.7141571,9.950745,-0.020965576,-0.009628296,0.029129028
2022/12/8 19:48,3001,0.049756903,-0.04319489,0.074887276,0.035191577,0.77382123,9.77601,0.016835967,0.03576753,0.9228627,0.38309476,0.08444214,0.7398834,9.952545,0.014175415,-0.004302979,-0.002822876
2022/12/8 19:48,3041,0.07722422,0.005490661,-0.031956673,0.03792165,0.78013986,9.775496,0.017122721,0.036066886,0.9228224,0.38315117,0.11376953,0.7865753,9.833435,0.010986328,-0.001098633,-0.002822876
2022/12/8 19:48,3082,0.005905606,0.03796649,0.01864624,0.04037808,0.7873485,9.774908,0.01738921,0.036435194,0.92269754,0.38340488,0.02218628,0.8260803,9.904053,0.021636963,-0.003234863,0.005691528
2022/12/8 19:48,3121,0.075696684,-0.049257517,-0.03403282,0.04476315,0.79469866,9.774294,0.01770294,0.03657783,0.92259055,0.3836344,0.09402466,0.7476654,9.859772,0.013122559,0.018066406,-0.003890991
2022/12/8 19:48,3161,0.00540543,-0.111980855,0.09875107,0.04176319,0.7962398,9.774183,0.017541867,0.036789667,0.92262644,0.38353524,0.04194641,0.6848297,9.983658,0.032287598,0.002090454,-0.012420654
2022/12/8 19:48,3202,-0.09982288,0.01203078,-0.25903797,0.044916913,0.8034436,9.77358,0.01801357,0.036953215,0.9224447,0.38393453,-0.033477783,0.8117218,9.553909,-0.015640259,-0.035186768,-0.004959106
2022/12/8 19:48,3241,0.016537908,0.0666281,-0.20095539,0.050104592,0.7998544,9.773849,0.017896548,0.036543652,0.9225337,0.38376543,0.07846069,0.8512268,9.658646,-0.044403076,0.030853271,0.011016846
2022/12/8 19:48,3281,0.014427509,0.001747012,0.19407654,0.038824122,0.7848706,9.775114,0.017004523,0.036206618,0.92255807,0.3837793,0.015609741,0.78778076,10.0494995,-0.011383057,0.020202637,-0.011352539
2022/12/8 19:48,3321,-0.062598586,0.025012136,-0.07492733,0.026950425,0.7803848,9.775514,0.016332777,0.036134712,0.9227513,0.38335043,-0.08015442,0.7548523,9.747833,-0.040145874,0.037246704,0.041915894
2022/12/8 19:48,3362,0.1550156,-0.12813628,0.14207554,0.026132908,0.76248455,9.776928,0.016196078,0.035308983,0.92291886,0.38302973,0.16584778,0.634552,10.016586,-0.020965576,-0.046905518,-0.017745972
2022/12/8 19:48,3401,-0.08560051,0.12578386,0.009601593,0.040350273,0.75380266,9.777553,0.016587203,0.03474528,0.9227916,0.3833709,-0.06159973,0.89611816,9.875931,-0.020965576,0.004226685,3.66E-04
2022/12/8 19:48,3442,-0.11498742,0.06529689,-0.049951553,0.032413855,0.75671107,9.777358,0.016248286,0.035031207,0.9229469,0.38298547,-0.093322754,0.8159027,9.820267,-0.020965576,-0.001098633,0.041915894
2022/12/8 19:48,3481,0.08669748,-0.11256534,0.17535305,0.038044233,0.74208605,9.778459,0.016388739,0.033916213,0.92323625,0.3823819,0.11975098,0.6243744,10.039932,-0.023101807,-0.037322998,0.005691528
2022/12/8 19:48,3522,0.092081875,-0.002110004,0.028767586,0.0554858,0.7325427,9.779095,0.017085485,0.033474535,0.9231832,0.3825184,0.15386963,0.7327118,9.923813,0.02696228,-0.007492065,0.001434326
2022/12/8 19:48,3561,0.040976398,-0.006009817,-0.19287014,0.06137141,0.7419531,9.77835,0.017388549,0.03374088,0.9231569,0.38254473,0.11317444,0.733902,9.704147,-0.009262085,-0.001098633,-7.02E-04
2022/12/8 19:48,3601,0.1023722,-0.057169497,0.003253937,0.06661978,0.73472303,9.778862,0.017493188,0.033336427,0.9231458,0.3826024,0.18081665,0.6764374,9.819061,0.005661011,0.016998291,-0.019866943
2022/12/8 19:48,3642,-0.13964641,0.07594192,-0.13984299,0.059823122,0.73625225,9.77879,0.017037475,0.033479523,0.923051,0.382839,-0.11427307,0.84043884,9.781952,-0.046539307,-0.004302979,-0.008148193
2022/12/8 19:48,3681,-0.024821155,0.012242496,0.36500454,0.06339079,0.7174375,9.780167,0.017068509,0.032571793,0.9231523,0.3826716,0.050323486,0.7243347,10.240448,0.00352478,-0.023468018,-0.003890991
2022/12/8 19:48,3721,-0.06961474,0.018037915,-0.20502281,0.060595497,0.73742974,9.778697,0.017268555,0.033695534,0.92312443,0.38263252,-0.011917114,0.7692261,9.679001,-0.001800537,-0.002166748,0.015274048
2022/12/8 19:48,3762,0.08505945,-0.05264461,-0.031255722,0.07375503,0.7220771,9.779753,0.017704973,0.032149892,0.9231115,0.38277674,0.1796112,0.68362427,9.837616,-0.060394287,-0.028808594,-0.016677856
2022/12/8 19:48,3802,-0.043106273,0.016081035,0.09042263,0.077342845,0.71228486,9.780442,0.017440137,0.032310717,0.923026,0.38298154,0.04673767,0.7285156,10.014786,0.039749146,0.044708252,-0.008148193
2022/12/8 19:48,3842,0.003985956,0.003964007,-0.013468742,0.065095484,0.7210275,9.779892,0.017142246,0.032639407,0.92287946,0.38332015,0.0778656,0.76322937,9.915436,-0.02949524,-0.016021729,-0.022003174
2022/12/8 19:48,3881,-0.10311915,0.090776384,0.08550835,0.06963659,0.7141082,9.780368,0.01727374,0.032259498,0.9228809,0.38334298,-0.04484558,0.8314667,9.956131,-0.013519287,-0.017089844,0.013153076
2022/12/8 19:48,3921,0.00310234,-0.06321663,0.0569582,0.069652036,0.7148081,9.780315,0.017216967,0.03234831,0.9229556,0.38315812,0.076660156,0.7051697,9.9657135,0.016311646,0.024459839,-0.003890991
2022/12/8 19:48,3962,0.002085246,-0.034922242,-0.015910149,0.065723844,0.7184219,9.780078,0.01726955,0.032507483,0.92296946,0.38310882,0.0826416,0.6848297,9.83522,-0.006057739,-0.023468018,0.004623413
2022/12/8 19:48,4002,0.025927395,0.015769958,0.05489731,0.0732048,0.7188281,9.779995,0.01750998,0.032561045,0.9228741,0.38332316,0.10838318,0.73210144,9.988449,0.05039978,0.022338867,-0.024139404
2022/12/8 19:48,4041,-0.006933443,-0.07626599,-0.246912,0.0643354,0.7306602,9.7791815,0.017308978,0.032949895,0.92291135,0.38320923,0.04852295,0.6668701,9.599991,-0.02949524,0.001022339,0.014221191
2022/12/8 19:48,4082,0.14158249,-0.10594356,0.055574417,0.07171246,0.7083439,9.780771,0.01718859,0.03185864,0.92284656,0.383463,0.22450256,0.60401917,9.915436,-0.014587402,0.013809204,-0.028396606
2022/12/8 19:48,4121,0.051812716,-0.024943411,0.1310873,0.06691197,0.70352614,9.781153,0.016908072,0.031824265,0.92263407,0.3839892,0.12693787,0.6848297,10.008804,0.001403809,0.0052948,-0.033721924
2022/12/8 19:48,4162,-0.21371174,0.08547312,-0.00141716,0.06280568,0.7078541,9.780869,0.016803728,0.032246456,0.92249924,0.38428244,-0.13043213,0.82788086,9.861557,-7.32E-04,-0.014953613,-0.007095337
2022/12/8 19:48,4201,-0.030244343,0.032511592,0.016191483,0.06013551,0.7124114,9.780555,0.016817497,0.032342058,0.92267025,0.38386297,0.040740967,0.7536621,9.920212,0.001403809,0.006347656,0.018478394
2022/12/8 19:48,4242,0.003860526,-0.03927481,-0.022234917,0.058366068,0.7135166,9.780484,0.016723117,0.032532528,0.9226923,0.3837979,0.028778076,0.7662201,9.896271,0.01737976,0.003158569,-0.006027222
2022/12/8 19:48,4281,-0.025203481,-0.05690998,-0.044719696,0.0529422,0.7069176,9.780994,0.016254662,0.032156844,0.9228705,0.3834211,0.0539093,0.6542969,9.904663,-0.035888672,0.019134521,0.018478394
2022/12/8 19:48,4321,0.13766788,-0.06862515,0.17022133,0.055098172,0.6968405,9.781705,0.01623904,0.031788215,0.92288965,0.3834064,0.15507507,0.6483154,10.039337,0.035491943,0.018066406,-0.022003174
2022/12/8 19:48,4361,-0.097890615,0.08123773,-0.12544346,0.04946647,0.71125907,9.780698,0.01628387,0.032605745,0.92279845,0.38355535,-0.06340027,0.7913666,9.790329,0.010986328,-0.016021729,-0.003890991
2022/12/8 19:48,4402,-6.07E-04,0.04588282,-0.12098408,0.056619793,0.70778954,9.780911,0.016482048,0.03198329,0.9229182,0.38331106,0.054519653,0.7584381,9.769989,-0.047607422,0.004226685,0.03338623
2022/12/8 19:48,4441,0.07175323,-0.10697514,0.1794548,0.055757448,0.6953231,9.78181,0.016091028,0.03175315,0.92307,0.38298115,0.13052368,0.595047,10.050705,0.021636963,0.035110474,0.005691528
2022/12/8 19:48,4482,0.013425589,0.019083083,0.07830429,0.050065804,0.6954837,9.78183,0.016013281,0.031721685,0.92306006,0.38301098,0.07246399,0.73809814,9.985458,-0.007125855,-0.012817383,-0.004959106
2022/12/8 19:48,4521,-0.026737168,-0.024381757,0.027439117,0.049806602,0.69980025,9.781523,0.015965413,0.032231107,0.92299694,0.38312256,6.41E-04,0.6650696,9.941772,0.037612915,0.022338867,-0.004959106
2022/12/8 19:48,4561,0.003007554,-0.047036886,-0.08157158,0.04083685,0.70974416,9.780848,0.01579625,0.032617822,0.9230523,0.38296345,0.0317688,0.66148376,9.81427,0.001403809,0.003158569,0.005691528
2022/12/8 19:48,4602,-0.015360981,-0.070762634,-0.014163017,0.041840795,0.7083035,9.780949,0.015754184,0.0326296,0.9230364,0.38300258,0.007232666,0.62197876,9.89328,0.018447876,0.009552002,-0.002822876
2022/12/8 19:48,4641,-0.031845316,-0.039674938,-0.017069817,0.037128724,0.71308637,9.78062,0.01577293,0.032898325,0.92307484,0.38288614,0.055114746,0.6758423,9.863953,0.010986328,-0.010696411,0.007827759
2022/12/8 19:48,4681,-0.0834054,0.046509326,-0.10045242,0.03842199,0.7198038,9.780123,0.015866725,0.033191446,0.9230085,0.38301682,-0.03466797,0.77160645,9.7999115,3.36E-04,-0.001098633,0.019546509
2022/12/8 19:48,4722,0.089117736,-0.08471614,0.095199585,0.036215667,0.71498036,9.780484,0.015663087,0.03295383,0.9231133,0.38279313,0.1293335,0.6489105,9.999832,0.004592896,0.009552002,-0.003890991
2022/12/8 19:48,4761,-0.029639509,-0.06363398,-0.005685806,0.032309122,0.71753126,9.780312,0.01547019,0.033236634,0.9231214,0.38275695,0.006637573,0.63334656,9.870544,0.019500732,0.021270752,0.008895874
2022/12/8 19:48,4801,0.07746269,-0.09542042,-0.08027649,0.029981703,0.71726394,9.780338,0.015449092,0.033159733,0.9231284,0.3827476,0.09580994,0.63035583,9.808884,0.005661011,0.003158569,-0.009216309
2022/12/8 19:48,4842,-0.05131958,0.036513627,0.071284294,0.03423165,0.7095859,9.780884,0.015461699,0.032699227,0.92322916,0.38254353,-0.001144409,0.7470703,9.936981,-0.014587402,-0.010696411,0.001434326
2022/12/8 19:48,4881,-0.17436385,0.1034984,-0.010480881,0.03011006,0.71491086,9.780511,0.015305496,0.03332816,0.92317605,0.38262373,-0.14360046,0.8266754,9.899872,0.010986328,0.009552002,0.03338623
2022/12/8 19:48,4922,-0.025892481,0.030099213,-0.017951012,0.024772065,0.719576,9.780183,0.015232229,0.03334047,0.92317927,0.38261792,-0.011322022,0.76742554,9.864548,-0.022033691,-0.009628296,0.026992798
2022/12/8 19:48,4961,-0.004400477,-0.027304113,0.09174442,0.024845174,0.7133715,9.780638,0.015096568,0.0331629,0.9232498,0.38246855,0.08503723,0.70277405,9.9704895,0.01524353,0.016998291,0.016342163
2022/12/8 19:48,5002,0.021699049,-0.013914049,-0.007070541,0.023365349,0.7187116,9.780251,0.015122079,0.0334407,0.9231792,0.3826136,-0.003540039,0.72732544,9.852585,0.00352478,0.001022339,0.008895874
2022/12/8 19:48,5041,-0.04192203,0.019567788,-0.03374195,0.020483054,0.7215893,9.780045,0.015008729,0.033793423,0.92319304,0.3825538,-0.016113281,0.7464752,9.890289,0.02696228,0.013809204,0.001434326
2022/12/8 19:48,5081,-0.12853922,0.11448389,-0.2179966,0.004936223,0.7310458,9.779362,0.014309743,0.034339126,0.92334414,0.3821671,-0.14001465,0.8512268,9.689178,-0.048675537,0.012741089,0.03338623
2022/12/8 19:48,5122,-0.054430082,0.033246696,0.12090874,-0.00235344,0.7181877,9.780316,0.013698986,0.03390875,0.9236119,0.38158047,-0.04664612,0.773407,10.006409,-0.012451172,0.027664185,0.026992798
2022/12/8 19:48,5161,0.036697738,-0.040330827,0.1557436,-0.017002642,0.7160746,9.780457,0.013014328,0.034175772,0.92383254,0.38104603,0.03656006,0.66926575,10.0572815,0.012054443,0.04257202,0.036590576
2022/12/8 19:48,5202,0.06330802,-8.31E-04,-0.008069992,-0.024356311,0.72458196,9.779815,0.012935784,0.03486745,0.92392886,0.3807524,0.064697266,0.73091125,9.860962,0.031219482,0.020202637,0.011016846
2022/12/8 19:48,5241,-0.016203929,-0.010772884,0.044716835,-0.03184362,0.7328503,9.779177,0.012720936,0.035180308,0.9240279,0.38049036,-0.040649414,0.7153473,9.939972,0.007797241,0.004226685,0.015274048
2022/12/8 19:48,5281,0.076570705,0.04768449,-0.017113686,-0.028288739,0.7392199,9.778708,0.013063559,0.035538863,0.9240309,0.3804382,0.043136597,0.8081207,9.862152,0.037612915,0.015945435,0.005691528
2022/12/8 19:48,5322,0.06504933,0.005082727,-0.038557053,-0.038460884,0.7565833,9.777346,0.0128212,0.036488615,0.92402893,0.38036135,0.056915283,0.74227905,9.961517,0.016311646,0.032989502,0.003570557
2022/12/8 19:48,5361,0.01612724,-0.006533027,0.076088905,-0.039291877,0.7617878,9.776938,0.013030956,0.036755428,0.92396873,0.38047466,-0.013717651,0.7362976,9.935181,0.032287598,-0.014953613,0.003570557
2022/12/8 19:48,5401,0.14123778,-0.045775115,-0.1706419,-0.032477833,0.76986116,9.77633,0.013467006,0.036914445,0.9238432,0.38074884,0.11077881,0.7440796,9.71431,0.004592896,0.011672974,-0.009216309
2022/12/8 19:48,5442,0.12674874,-0.111947596,0.03254795,-0.032083157,0.76358205,9.776825,0.013252972,0.036536463,0.9240008,0.3804103,0.116760254,0.6770477,9.880112,-0.00819397,0.025527954,-0.030532837
2022/12/8 19:48,5481,-0.11757979,0.033468306,0.018128395,-0.036377404,0.7596939,9.777113,0.01299679,0.0365893,0.9240429,0.38031173,-0.15019226,0.7913666,9.87532,-0.004989624,-0.013885498,-0.02519226
2022/12/8 19:48,5521,0.105166525,-0.024364352,-0.055903435,-0.032632757,0.75651944,9.777371,0.013295153,0.036158375,0.9239452,0.38057995,0.10359192,0.7231293,9.827438,-0.013519287,-0.012817383,-0.028396606
2022/12/8 19:48,5561,-0.17864814,0.110776305,0.041244507,-0.026025156,0.7508473,9.777829,0.013358382,0.035879422,0.9237296,0.38112712,-0.21662903,0.8625946,9.89328,-0.027359009,-0.03199768,-0.006027222
2022/12/8 19:48,5602,0.015138004,0.019752204,0.077399254,-0.025574937,0.7481621,9.778036,0.013275567,0.035963215,0.92378396,0.38099036,-0.002349854,0.74946594,9.91124,0.035491943,0.023391724,-0.010284424
2022/12/8 19:48,5641,-0.014155582,-0.07904494,0.057207108,-0.037304495,0.76019317,9.77707,0.013028101,0.03657268,0.9238312,0.38082618,-0.0544281,0.6854248,9.954941,0.005661011,-0.010696411,-0.00177002
2022/12/8 19:48,5681,-0.084845625,-0.006581605,-0.036600113,-0.034116425,0.7563402,9.777381,0.013030826,0.03640651,0.92385745,0.38077834,-0.09811401,0.76023865,9.863358,0.012054443,0.016998291,-0.011352539
2022/12/8 19:48,5722,-0.023265846,-0.005212605,-0.07886982,-0.045915544,0.7681931,9.776408,0.012708328,0.03729585,0.92388844,0.38062802,-0.007141113,0.7159424,9.83403,0.025894165,0.030853271,0.006759644
2022/12/8 19:48,5761,-0.018000863,-0.022873461,0.085591316,-0.055833377,0.7723257,9.7760315,0.012352761,0.037577942,0.923867,0.38066402,-0.07896423,0.76982117,9.976486,0.016311646,-0.001098633,-0.003890991
2022/12/8 19:48,5801,-0.016630556,0.052538395,-0.052205086,-0.060724054,0.7844436,9.775037,0.012264323,0.038524337,0.9238379,0.38064286,-0.06639099,0.8542175,9.842407,0.041885376,0.048965454,0.002502441
2022/12/8 19:48,5842,-0.011435322,0.02633053,-0.062521935,-0.07387365,0.79267764,9.774282,0.011877301,0.038717937,0.9239296,0.38041297,-0.0879364,0.81051636,9.816071,-0.034820557,-0.010696411,0.015274048
2022/12/8 19:48,5881,0.01913403,-0.001105249,-0.052941322,-0.072746076,0.7817755,9.775169,0.01164918,0.03831047,0.9240635,0.38013574,-0.05860901,0.79255676,9.840012,-7.32E-04,0.023391724,0.014221191
2022/12/8 19:48,5921,0.012580544,0.021124065,-0.08814049,-0.08320449,0.7799459,9.775231,0.011041233,0.038301133,0.92425,0.3797012,-0.0945282,0.7871704,9.7604065,-0.046539307,0.020202637,0.034454346
2022/12/8 19:48,5962,0.08871275,-0.045650363,0.2754221,-0.08178494,0.76307774,9.776574,0.011091204,0.037431963,0.92453444,0.37909356,0.0317688,0.7219391,10.153656,0.009918213,-0.021347046,0.022735596
2022/12/8 19:48,6001,0.053246662,-0.054881275,-0.07563877,-0.069716215,0.76822627,9.776265,0.011626069,0.03768027,0.9245561,0.37900013,-0.02330017,0.7033844,9.822647,0.028030396,-0.00642395,0.007827759
2022/12/8 19:48,6041,0.015874498,-0.009962499,-0.22890186,-0.05978515,0.76664346,9.776455,0.012051523,0.037087973,0.92465293,0.37880898,-0.04425049,0.78956604,9.662842,-0.049728394,-0.017089844,0.012084961
2022/12/8 19:48,6081,0.10154836,-0.057955623,0.06535339,-0.058975384,0.755405,9.777335,0.011771468,0.036908414,0.924683,0.378762,0.052719116,0.68182373,9.966309,0.037612915,0.041503906,-0.010284424
2022/12/8 19:48,6122,-0.04638034,-0.009890795,-0.1419506,-0.07553273,0.76181036,9.776725,0.011098111,0.03718035,0.9246398,0.378861,-0.113082886,0.75964355,9.71492,-0.05718994,-0.017089844,0.001434326
2022/12/8 19:48,6161,0.15949214,-0.069490194,0.22951603,-0.059741102,0.73963916,9.778536,0.011621116,0.03595251,0.9246462,0.3789483,0.091033936,0.6896057,10.121933,0.010986328,-4.58E-05,-0.031585693
2022/12/8 19:48,6201,-0.09233931,0.035347342,-0.015050888,-0.0598522,0.747162,9.777963,0.011575995,0.03654091,0.92439485,0.37950614,-0.1459961,0.78837585,9.858566,0.005661011,-4.58E-05,-0.014541626
2022/12/8 19:48,6242,0.08604284,-0.05826372,0.050826073,-0.05719381,0.7434083,9.778264,0.011830429,0.03613117,0.9244225,0.3794701,-0.02508545,0.69081116,9.911835,0.014175415,-0.017089844,-0.018814087
2022/12/8 19:48,6281,-0.001909208,0.047115386,-0.13525867,-0.05584838,0.7540373,9.777458,0.011956053,0.036757987,0.9241578,0.38005027,-0.07896423,0.77760315,9.777756,0.01524353,0.014877319,-0.030532837
2022/12/8 19:48,6321,-0.16616698,0.041855037,0.11166954,-0.06205906,0.755107,9.777339,0.011697514,0.03684081,0.92405295,0.38030523,-0.22621155,0.82728577,10.007614,-0.015640259,-0.028808594,-0.008148193
2022/12/8 19:48,6362,-0.090512834,0.056718707,0.011291504,-0.06518778,0.75750446,9.777132,0.011542496,0.03704065,0.92413294,0.38009614,-0.12565613,0.8117218,9.902267,-0.002868652,0.010620117,0.017410278
2022/12/8 19:48,6401,0.017084353,-0.039574802,0.075027466,-0.06732784,0.75784856,9.777092,0.011583173,0.037150957,0.9242283,0.3798521,-0.06639099,0.72073364,9.989655,0.031219482,0.001022339,3.66E-04
2022/12/8 19:48,6441,0.010399498,-0.065885186,-0.12169075,-0.068198964,0.76882565,9.776229,0.01166473,0.03766643,0.92420846,0.37984714,-0.07536316,0.72732544,9.775375,0.022705078,0.018066406,-7.02E-04
2022/12/8 19:48,6481,0.043204434,-0.11119157,0.029642105,-0.07341875,0.7655855,9.776445,0.01139156,0.037531894,0.92432415,0.37958726,-0.019104004,0.6674652,9.911835,0.016311646,0.002090454,-0.015609741
2022/12/8 19:48,6521,0.017329209,0.09192413,-0.12149048,-0.077451296,0.7758978,9.775601,0.011241986,0.038478225,0.92417914,0.3798499,-0.048431396,0.88414,9.780762,0.04081726,0.07026672,-0.023071289
2022/12/8 19:48,6561,-0.06876536,0.029359162,0.08160305,-0.117228344,0.79622984,9.77357,0.009551415,0.040087707,0.9241445,0.37981397,-0.19448853,0.8093262,9.956726,0.00352478,0.04043579,0.004623413
2022/12/8 19:48,6601,-0.083126135,0.069795966,0.038085938,-0.114518814,0.7872589,9.774329,0.010277852,0.038794763,0.924295,0.379563,-0.15557861,0.82489014,9.929199,-0.09020996,-0.1353302,0.024871826
2022/12/8 19:48,6641,0.10704444,-0.015044153,0.08665943,-0.061657596,0.75131655,9.777633,0.011989563,0.03607985,0.92439836,0.3795289,0.057510376,0.73928833,9.9704895,-0.06251526,-0.08312988,-7.02E-04
2022/12/8 19:48,6682,-0.026671633,0.021285594,-0.11779785,-0.03078274,0.7322695,9.779223,0.01280027,0.035133436,0.92434114,0.3797305,-0.07536316,0.7829895,9.741257,-0.007125855,-0.02986145,-0.002822876
2022/12/8 19:48,6721,0.016828492,-0.034062088,0.003925324,-0.04324962,0.7402626,9.778575,0.012121571,0.035995208,0.92430025,0.37977156,-0.02809143,0.7362976,9.878326,0.074905396,0.109680176,-0.002822876
2022/12/8 19:48,6762,-0.00685028,-0.03441125,-0.009332657,-0.07636633,0.76125675,9.77676,0.011111276,0.03740474,0.9243071,0.37964955,-0.07476807,0.7404938,9.892685,-0.022033691,-0.007492065,-0.004959106
2022/12/8 19:48,6801,0.010806993,0.031658947,0.140831,-0.06331115,0.749183,9.777785,0.011659035,0.036601342,0.92417896,0.3800232,-0.060409546,0.77041626,10.053696,0.002456665,-0.017089844,-0.020935059
2022/12/8 19:48,6842,-0.075608626,0.031531215,-0.07744408,-0.0687142,0.75581884,9.777239,0.011324149,0.036971744,0.92420185,0.3799418,-0.13882446,0.7913666,9.801102,-0.020965576,0.0052948,0.015274048
2022/12/8 19:48,6881,-0.08664702,0.028641164,-1.34E-04,-0.06549148,0.74681807,9.777952,0.011473143,0.036393132,0.9242643,0.37984133,-0.1561737,0.8045349,9.884903,-0.030563354,-0.042648315,0.004623413
2022/12/8 19:48,6922,-0.034066796,-0.10125637,0.13067532,-0.06511907,0.738606,9.778579,0.011100249,0.036013246,0.9246484,0.3789527,-0.086746216,0.63394165,10.045914,0.002456665,0.018066406,0.048309326
2022/12/8 19:48,6961,0.25887603,-0.2283625,0.005444527,-0.05553238,0.7351398,9.7789,0.011713041,0.035826813,0.9246965,0.3788345,0.1796112,0.57528687,9.857376,0.056793213,-0.002166748,-0.035858154
2022/12/8 19:48,7002,-0.10662261,0.07266569,-0.18953705,-0.05404677,0.74090207,9.778473,0.011709475,0.03587859,0.9244923,0.37932777,-0.12565613,0.79914856,9.743652,-0.048675537,-0.005371094,-0.01348877
2022/12/8 19:48,7041,-0.0900722,0.13077909,0.14306736,-0.05972365,0.7329731,9.779037,0.011291156,0.035959817,0.9243018,0.37979677,-0.12565613,0.8338623,10.046509,0.01524353,0.008483887,-0.018814087
2022/12/8 19:48,7082,-0.06704937,0.072277784,0.116838455,-0.07478326,0.7422015,9.778237,0.010799349,0.036473606,0.9244092,0.3795005,-0.16934204,0.8159027,10.001022,-0.014587402,0.014877319,0.026992798
2022/12/8 19:48,7121,0.024299324,0.04248339,0.022663116,-0.0738724,0.74589515,9.777963,0.011172883,0.03684159,0.924451,0.37935236,-0.05680847,0.7907715,9.966309,0.044006348,-0.021347046,0.008895874
2022/12/8 19:48,7162,0.06863558,0.013060391,-0.33108902,-0.07368625,0.7566453,9.777138,0.011072605,0.03710753,0.9245727,0.3790327,-0.008331299,0.7865753,9.589813,-0.026306152,0.031921387,0.029129028
2022/12/8 19:48,7201,0.18793274,-0.17643082,0.07757282,-0.070029564,0.73337716,9.778939,0.01093419,0.035607778,0.9247103,0.37884486,0.10479736,0.55493164,9.979477,-0.027359009,-0.001098633,-0.017745972
2022/12/8 19:48,7241,0.00866618,-0.009536743,0.07465935,-0.07086382,0.7261703,9.77947,0.010636814,0.035804197,0.9245522,0.3792205,-0.06878662,0.7291107,9.995041,0.022705078,0.020202637,-0.016677856
2022/12/8 19:48,7282,0.05900114,0.054664135,-0.07827759,-0.07432043,0.73430693,9.778837,0.010709574,0.0361631,0.9242783,0.3798514,-0.014312744,0.7955475,9.8471985,0.005661011,0.013809204,-0.024139404
2022/12/8 19:48,7321,-0.15770335,0.14392513,-0.09815407,-0.08752101,0.74012566,9.77829,0.01007593,0.036608916,0.9241926,0.38003466,-0.24536133,0.89012146,9.789139,-0.038009644,-0.002166748,0.017410278
2022/12/8 19:48,7362,0.055160716,-0.03851241,0.19762993,-0.0866153,0.7322276,9.778892,0.010156213,0.036272913,0.9242527,0.37991855,-0.03526306,0.70158386,10.094391,0.035491943,0.003158569,-0.008148193
2022/12/8 19:48,7401,0.003268965,0.022580266,-0.14377975,-0.09122006,0.7506111,9.777456,0.010298344,0.037263803,0.9241646,0.38003317,-0.09931946,0.78118896,9.749634,0.018447876,-0.008560181,0.002502441
2022/12/8 19:48,7441,0.06311993,0.027781785,0.05663395,-0.081840284,0.7436289,9.778072,0.010611161,0.03655423,0.92411494,0.38021412,-0.020904541,0.7859802,9.919022,-0.028427124,-0.014953613,-0.009216309
2022/12/8 19:48,7481,-0.021678232,0.029250741,-0.007110596,-0.080157496,0.75622165,9.777121,0.010952166,0.037463117,0.9239506,0.38051525,-0.048431396,0.80992126,10.066269,0.07383728,0.004226685,-0.012420654
2022/12/8 19:48,7521,-0.053117394,0.018778324,-0.102422714,-0.076979354,0.76987433,9.77608,0.01145275,0.037678868,0.92392147,0.38054997,-0.1274414,0.8224945,9.806488,-0.01991272,-0.042648315,0.005691528
2022/12/8 19:48,7562,-0.004930548,-0.028859198,0.00187397,-0.071928546,0.7749189,9.775721,0.011681795,0.038166873,0.9240099,0.38027954,-0.06819153,0.7572479,9.890289,0.037612915,0.022338867,0.015274048
2022/12/8 19:48,7601,-0.00580623,-0.0284127,0.027635574,-0.07699352,0.7800236,9.775276,0.011399941,0.038331714,0.924065,0.38013768,-0.07417297,0.76742554,9.9339905,-0.003921509,0.003158569,-0.014541626
2022/12/8 19:48,7641,-0.18063617,0.06894314,0.014541626,-0.08103562,0.7868608,9.774695,0.011552818,0.03885632,0.92417055,0.37982297,-0.21003723,0.85661316,9.906448,0.04081726,-0.023468018,0.028060913
2022/12/8 19:48,7682,0.057746865,-0.05962521,-0.08761406,-0.0815329,0.80275303,9.773399,0.011703158,0.03957922,0.924326,0.37936527,0.013809204,0.74108887,9.797516,0.042938232,0.030853271,0.015274048
2022/12/8 19:48,7721,-0.037099265,0.08249384,0.06415653,-0.081284516,0.8123031,9.772612,0.011934558,0.039936464,0.9242922,0.37940297,-0.11128235,0.9242401,9.949554,-0.007125855,-0.025604248,0.008895874
2022/12/8 19:48,7762,-0.05160214,0.017415524,-0.063017845,-0.07779816,0.8178503,9.772178,0.012153454,0.040171273,0.9245173,0.3788224,-0.07896423,0.84942627,9.876526,0.019500732,0.012741089,0.034454346
2022/12/8 19:48,7801,0.110607296,-0.087034166,-0.068416595,-0.0811773,0.81951517,9.77201,0.011932623,0.040189456,0.9247811,0.378183,0.023986816,0.7446747,9.825043,-0.004989624,0.029785156,0.018478394
2022/12/8 19:48,7841,0.003198318,-0.006204724,0.09623337,-0.08442635,0.817661,9.772139,0.011789685,0.040523965,0.9247466,0.3782361,-0.071777344,0.8147125,10.003418,0.042938232,0.019134521,-0.004959106
2022/12/8 19:48,7881,0.022737958,0.012742341,-0.11076641,-0.09255188,0.83133054,9.770912,0.011583015,0.041012906,0.9248309,0.37798357,-0.07058716,0.85720825,9.773575,-0.024169922,0.018066406,0.022735596
2022/12/8 19:48,7922,0.011187822,-0.032427907,0.069838524,-0.09177495,0.8226613,9.771652,0.011550499,0.040649727,0.9249288,0.37778428,-0.07536316,0.8326721,9.9579315,0.010986328,0.002090454,0.001434326
2022/12/8 19:48,7961,-0.031928845,0.009930551,-0.10618019,-0.09533527,0.8286344,9.771113,0.011430644,0.04101233,0.92489016,0.37784323,-0.12445068,0.8380585,9.777161,-0.00819397,0.024459839,0.014221191
2022/12/8 19:48,8002,0.039328694,-0.015700996,0.14803314,-0.098266125,0.8172399,9.772044,0.011150464,0.0404546,0.92502034,0.37759304,-0.07357788,0.8260803,10.033936,-0.006057739,-0.014953613,0.008895874
2022/12/8 19:48,8041,0.025315054,0.012828112,-0.15210056,-0.09960633,0.8206044,9.7717495,0.011073625,0.040718883,0.92499584,0.3776269,-0.08314514,0.8117218,9.713715,3.36E-04,0.031921387,0.015274048
2022/12/8 19:48,8082,0.044265248,-0.08815795,0.041312218,-0.10649405,0.81313044,9.772301,0.010498829,0.040309362,0.92521745,0.37714395,-0.0657959,0.7171478,9.946548,-0.01991272,0.014877319,0.008895874
2022/12/8 19:49,8121,0.066647716,-0.17546946,0.052653313,-0.10902645,0.80016863,9.773343,0.010157102,0.039892416,0.92537975,0.3767994,-0.033477783,0.62916565,9.919617,0.012054443,0.022338867,-0.02519226
2022/12/8 19:49,8161,0.021568783,-0.03655839,-0.05909729,-0.11538681,0.7961829,9.773595,0.009783504,0.03980548,0.92548114,0.37656936,-0.11187744,0.75605774,9.79512,-0.012451172,-0.007492065,-0.023071289
2022/12/8 19:49,8201,-0.116521515,0.08797431,0.050379753,-0.117350124,0.79062176,9.774023,0.009549794,0.03956438,0.92556006,0.37640682,-0.24057007,0.90808105,9.923218,-0.027359009,-4.58E-05,0.009948731
2022/12/8 19:49,8242,-0.024863608,-0.02225244,0.1400032,-0.118202604,0.78553104,9.774424,0.009571697,0.039329328,0.9255348,0.3764929,-0.12025452,0.7464752,10.001022,3.36E-04,-0.019210815,0.006759644
2022/12/8 19:49,8282,-0.007437199,-0.021180272,0.032527924,-0.11286435,0.7886629,9.774234,0.009990566,0.039613992,0.9254093,0.3767605,-0.13223267,0.7464752,9.9579315,0.05039978,-0.021347046,-0.004959106
2022/12/8 19:49,8321,-0.038316406,0.001076341,-0.2604885,-0.10849508,0.8024206,9.773165,0.010258397,0.040013883,0.9254218,0.37668052,-0.15916443,0.8488312,9.646088,-0.010314941,0.008483887,0.009948731
2022/12/8 19:49,8361,-0.07041465,0.020403445,-0.023979187,-0.11971811,0.8032127,9.772968,0.009685194,0.04050635,0.92551124,0.3764231,-0.19029236,0.83924866,9.824448,0.028030396,0.022338867,0.015274048
2022/12/8 19:49,8402,0.07881233,-0.120132625,-0.001563072,-0.13093115,0.80268914,9.772867,0.009181124,0.03999747,0.92577505,0.37584093,-0.008926392,0.6674652,9.910645,-0.03907776,-0.008560181,0.017410278
2022/12/8 19:49,8441,0.07874099,0.038701415,0.024805069,-0.11271797,0.7876691,9.774317,0.009864684,0.039431766,0.925709,0.37604615,0.005432129,0.8254852,9.890884,0.00352478,-0.017089844,-0.018814087
2022/12/8 19:49,8481,-0.11812045,0.07361144,0.0538435,-0.1243301,0.8011184,9.773083,0.009431009,0.040468585,0.9256358,0.3761272,-0.23997498,0.87875366,9.923218,0.01524353,0.020202637,0.013153076
2022/12/8 19:49,8522,-0.045904294,0.00467366,-0.048888206,-0.12614739,0.81104714,9.772241,0.009628447,0.040788382,0.9257573,0.37578854,-0.1962738,0.8153076,9.832825,0.007797241,-0.010696411,0.026992798
2022/12/8 19:49,8561,0.07250492,-0.06513655,0.10002136,-0.12633744,0.8090124,9.772407,0.009597807,0.0405525,0.9260253,0.37515408,-0.055618286,0.7752075,9.99025,0.00352478,-0.004302979,0.019546509
2022/12/8 19:49,8602,0.06290215,-0.042812943,-0.13428116,-0.11446006,0.80813146,9.772626,0.01019429,0.040434424,0.9259512,0.3753339,-0.060409546,0.7746124,9.759811,0.008850098,-0.009628296,-0.003890991
2022/12/8 19:49,8641,0.06047184,-0.024297178,-0.06454754,-0.11039814,0.8080428,9.772679,0.010330365,0.040256035,0.9259425,0.37537083,-0.031677246,0.7823944,9.826248,0.001403809,-0.005371094,-0.004959106
2022/12/8 19:49,8682,0.028483443,-0.028674126,-0.13416958,-0.10547438,0.8046677,9.773012,0.01037625,0.03998047,0.9259565,0.3753645,-0.10290527,0.8147125,9.786148,-0.034820557,0.007415772,-0.006027222
2022/12/8 19:49,8721,0.008907236,-0.01718396,0.2694416,-0.10496068,0.79172635,9.774075,0.010304331,0.0394241,0.9260547,0.3751829,-0.10470581,0.78897095,10.0967865,0.01524353,-0.026672363,-0.020935059
2022/12/8 19:49,8761,-0.05519314,0.08382177,-0.128376,-0.09907389,0.80523825,9.773032,0.010781489,0.04004866,0.92581606,0.37569204,-0.1346283,0.8721771,9.71492,0.014175415,-4.58E-05,0.002502441
2022/12/8 19:49,8802,0.008843593,-0.039299488,0.047969818,-0.10106227,0.80925196,9.77268,0.010790815,0.040199935,0.9257996,0.37571615,-0.093322754,0.77160645,9.9184265,0.007797241,-0.010696411,-0.014541626
2022/12/8 19:49,8841,0.07177051,-0.030105472,0.002428055,-0.09521069,0.8110309,9.772592,0.011045682,0.040284257,0.92573303,0.3758637,-0.041259766,0.7949524,9.900467,0.025894165,0.011672974,-0.024139404
2022/12/8 19:49,8881,-0.007356145,-0.005921543,-0.15028381,-0.096940584,0.8137006,9.772352,0.011037955,0.04015628,0.9257581,0.37581587,-0.09991455,0.8344574,9.747238,-0.042282104,-0.022415161,-0.006027222
2022/12/8 19:49,8922,0.021567889,0.051077664,0.06283188,-0.090630375,0.80104005,9.773459,0.010982408,0.039629232,0.9258295,0.37569752,-0.10231018,0.84762573,9.923218,-7.32E-04,0.012741089,-0.015609741
2022/12/8 19:49,8961,-0.111242115,0.072033346,-0.014105797,-0.100706965,0.8082392,9.772768,0.010686348,0.040250126,0.92579144,0.37573382,-0.21003723,0.89790344,9.855576,-0.002868652,-0.003234863,0.014221191
2022/12/8 19:49,9001,-0.03386713,0.049013495,0.006921768,-0.10030368,0.8051321,9.773028,0.010751179,0.039923012,0.9258005,0.3757446,-0.15737915,0.86499023,9.91304,-0.016708374,-0.012817383,0.016342163
2022/12/8 19:49,9042,-0.035275325,0.015299737,-0.046013832,-0.10097646,0.80471236,9.773056,0.010667326,0.03993159,0.9258845,0.375539,-0.12924194,0.82728577,9.813675,-0.010314941,0.0052948,0.036590576
2022/12/8 19:49,9082,0.01521419,0.04967159,0.04336071,-0.091662936,0.8013009,9.773429,0.011053253,0.03966344,0.9258971,0.37552512,-0.079559326,0.86079407,9.910645,-0.006057739,-0.014953613,0.016342163
2022/12/8 19:49,9121,0.3072169,-0.12946689,-0.06035328,-0.084476896,0.79364705,9.774118,0.011388789,0.038976572,0.92613536,0.37499917,0.18978882,0.69140625,9.843002,-0.010314941,-0.038391113,0.03126526
2022/12/8 19:49,9161,0.19324382,-0.05302918,-0.38695526,-0.04881134,0.7784935,9.77558,0.012572557,0.03760869,0.9259677,0.37551472,0.13711548,0.7039795,9.459335,-0.06465149,-0.001098633,-0.015609741
2022/12/8 19:49,9201,0.029830322,-0.024846733,0.051218987,-0.04316341,0.751761,9.7776985,0.012413296,0.036053166,0.926051,0.3754672,-0.008331299,0.7362976,9.917831,-0.05505371,-0.0415802,0.009948731
2022/12/8 19:49,9242,-0.008840885,0.12487155,0.18190765,-0.040113464,0.73202765,9.779208,0.012052034,0.03512462,0.9263428,0.37484667,-0.0544281,0.84762573,10.051895,-0.049728394,-0.008560181,0.051498413
2022/12/8 19:49,9281,0.04331341,0.037314832,0.47766113,-0.030986218,0.71918094,9.780194,0.012527352,0.034676332,0.9264381,0.3746372,-0.029876709,0.7650299,10.324844,0.046142578,-0.040512085,-0.008148193
2022/12/8 19:49,9321,-0.13575406,0.23942012,-0.12573147,-0.019039052,0.7426395,9.778471,0.013526454,0.03568045,0.9264642,0.37444362,-0.14060974,0.96673584,9.682587,0.033355713,-0.027740479,0.04510498
2022/12/8 19:49,9362,0.2351922,-0.055867612,-0.17478275,-0.010284452,0.74303895,9.778454,0.013595972,0.03512508,0.92683846,0.3735664,0.24305725,0.67944336,9.7209015,-0.04335022,0.019134521,0.023803711
2022/12/8 19:49,9401,0.18388724,-0.1013422,-0.03883648,-0.017261863,0.731492,9.779316,0.01293824,0.034952324,0.9267501,0.37382504,0.07965088,0.66207886,9.808884,-0.022033691,0.04043579,-0.030532837
2022/12/8 19:49,9441,0.02329627,0.06595147,0.10634613,-0.03141751,0.71299344,9.780646,0.012058504,0.03420262,0.92656213,0.37438935,0.020996094,0.78837585,10.023773,-0.054000854,0.011672974,-0.03691101
2022/12/8 19:49,9482,-0.1300635,0.24652463,-0.003560066,-0.039771687,0.70726144,9.781033,0.011589547,0.03431649,0.92616844,0.37536654,-0.14360046,0.931427,9.870544,0.024841309,0.043640137,-0.03904724
2022/12/8 19:49,9521,0.02994395,0.2636792,0.00565052,-0.059540782,0.7137133,9.780463,0.01061355,0.03501729,0.9260582,0.37560263,-0.07357788,0.9781189,9.855576,-7.32E-04,0.06175232,0.002502441
2022/12/8 19:49,9561,-0.034695007,0.21481311,0.085562706,-0.08413068,0.71432614,9.780238,0.009332548,0.03523743,0.92625237,0.37513697,-0.1274414,0.9715271,9.942368,-0.063583374,0.062805176,0.07600403
2022/12/8 19:49,9601,0.78055465,-0.28487188,0.989645,-0.093298696,0.6806551,9.782555,0.00891709,0.033814024,0.926624,0.37435946,0.6979523,0.3999176,10.90184,0.010986328,-0.059692383,-0.031585693
2022/12/8 19:49,9641,0.39549565,0.21956724,-0.5861387,-0.06583597,0.73031235,9.779198,0.01142914,0.036815383,0.92538196,0.37707055,0.29273987,1.002655,9.224106,0.19100952,0.006347656,-0.15196228
2022/12/8 19:49,9682,-0.097293265,0.5734896,-0.7817478,-0.07786074,0.7847861,9.774888,0.011284035,0.03866922,0.9246325,0.37872428,-0.19508362,1.3749542,9.061295,-0.028427124,0.04043579,-0.03904724
2022/12/8 19:49,9721,-0.4424196,0.5592942,0.112755775,-0.094131045,0.78592426,9.774653,0.010676706,0.039164953,0.924659,0.3786262,-0.5649872,1.3234711,10.015381,0.028030396,0.02659607,0.06428528
2022/12/8 19:49,9761,-0.16827881,-0.14404249,0.2680111,-0.10868735,0.79430884,9.773825,0.010066686,0.039558303,0.9255636,0.37638533,-0.2902527,0.6764374,10.113556,-0.03163147,0.013809204,0.125
2022/12/8 19:49,9802,-0.012280799,-0.6344864,0.49594402,-0.106588684,0.78632337,9.774493,0.010096534,0.039318763,0.92606807,0.37516668,-0.15138245,0.1724701,10.312866,0.072769165,-0.027740479,-0.017745972
2022/12/8 19:49,9841,-0.6328185,-0.35230184,-0.5881405,-0.104386434,0.80776,9.772769,0.010299071,0.040316973,0.92615527,0.37483978,-0.72839355,0.45558167,9.297134,0.007797241,0.044708252,0.044036865
2022/12/8 19:49,9882,-0.11513291,-0.56373185,-0.4293213,-0.1295841,0.7935534,9.773631,0.008654567,0.03980517,0.9265899,0.37386066,-0.24476624,0.23770142,9.443176,-0.061447144,0.048965454,0.019546509
2022/12/8 19:49,9922,-0.32293522,-0.23448014,-0.341012,-0.15059425,0.75917566,9.77606,0.006865505,0.038175963,0.9270087,0.37302858,-0.44407654,0.5058594,9.475494,-0.16477966,0.04043579,0.07279968
2022/12/8 19:49,9961,-0.1574177,-0.040051043,0.5830021,-0.1678038,0.6880113,9.781046,0.004620384,0.035091616,0.9277396,0.37154597,-0.32138062,0.6501007,10.473282,-0.14880371,0.03831482,0.071746826
2022/12/8 19:49,10002,-0.05243802,-0.12226504,0.7704916,-0.18152034,0.6509238,9.7833395,0.003503416,0.034394786,0.9282693,0.37029824,-0.20106506,0.5010681,10.612747,0.030166626,0.046829224,0.057891846
2022/12/8 19:49,10041,-0.115933955,-0.38591015,0.26950645,-0.18492278,0.66566557,9.782284,0.004216567,0.03522171,0.92846876,0.36971256,-0.29623413,0.30055237,10.015991,0.07170105,-0.06715393,-0.00177002
2022/12/8 19:49,10082,-0.47082084,-0.120452404,-0.08187866,-0.16969559,0.6891964,9.78093,0.005016683,0.035971697,0.92847335,0.36961886,-0.66134644,0.61299133,9.75322,0.051467896,-0.023468018,0.016342163
2022/12/8 19:49,10121,-0.47616047,0.03277254,-0.09998131,-0.16640837,0.7063444,9.779763,0.005444608,0.036885276,0.9287235,0.36889362,-0.6858978,0.78837585,9.758011,0.045074463,0.016998291,0.055755615
2022/12/8 19:49,10161,-0.40495342,0.098484576,0.14179707,-0.1782244,0.7254138,9.77816,0.005122174,0.037921518,0.9294888,0.36686012,-0.58833313,0.8266754,10.01239,0.024841309,0.015945435,0.12713623
2022/12/8 19:49,10202,-0.040458143,-0.001255572,0.16928768,-0.17875321,0.740742,9.777,0.005374398,0.038859855,0.9303358,0.36460426,-0.22142029,0.7554474,10.047714,0.06530762,0.024459839,0.123931885
2022/12/8 19:49,10241,0.21961623,-0.15741682,0.059132576,-0.18318652,0.76877403,9.774754,0.005751881,0.040231094,0.93109185,0.36251387,0.049728394,0.61898804,9.971695,0.072769165,-0.010696411,0.09197998
2022/12/8 19:49,10282,0.2500565,-0.15753633,-0.23236752,-0.17395175,0.79682714,9.7726755,0.006500709,0.04136597,0.93130016,0.36183786,0.0539093,0.64352417,9.654465,0.044006348,0.020202637,0.011016846
2022/12/8 19:49,10322,0.045572415,-0.22221333,0.12830067,-0.18129297,0.80463815,9.771903,0.006238862,0.04169542,0.93116665,0.36214817,-0.14421082,0.5968323,10.0447235,0.02909851,-0.009628296,-0.051834106
2022/12/8 19:49,10361,-0.2286728,0.16537201,-0.16314125,-0.17761481,0.81968206,9.77072,0.006880447,0.042534243,0.9307553,0.36309513,-0.42910767,1.0050507,9.678406,0.044006348,-4.58E-05,-0.028396606
2022/12/8 19:49,10402,-0.08176103,0.27262294,-0.07893944,-0.18202862,0.8320777,9.769591,0.006719914,0.04293078,0.93073064,0.36311466,-0.23518372,1.1062012,9.866348,-0.004989624,0.009552002,0.020614624
2022/12/8 19:49,10441,-0.041935742,0.081864834,0.27368832,-0.18398409,0.84246284,9.768664,0.006949542,0.043645754,0.9307956,0.36285853,-0.23757935,0.9421997,10.103973,0.082351685,-0.009628296,0.022735596
2022/12/8 19:49,10482,0.1535106,0.005873382,-0.36711216,-0.17653921,0.87010217,9.766377,0.00782544,0.044725012,0.93093085,0.36236203,0.003631592,0.8907318,9.521591,0.018447876,-0.009628296,0.019546509
2022/12/8 19:49,10522,0.21573769,0.012647927,-0.21339226,-0.17469491,0.8698069,9.766438,0.00777855,0.044558886,0.9308732,0.3625315,0.03895569,0.9015045,9.641296,-0.018844604,0.008483887,-0.011352539
2022/12/8 19:49,10561,0.2944939,-0.06929618,-0.03093338,-0.1768352,0.86243224,9.767054,0.007499913,0.044145335,0.9305083,0.3635233,0.102996826,0.8081207,9.825653,-0.034820557,0.008483887,-0.068878174
2022/12/8 19:49,10601,0.17666005,-0.16309828,0.09286499,-0.177813,0.83977,9.76901,0.007107636,0.042808615,0.9300601,0.36483574,-0.005340576,0.6824341,9.969894,-0.079559326,-0.013885498,-0.073135376
2022/12/8 19:49,10642,0.1337447,0.017137945,0.1719265,-0.17202964,0.8164145,9.771092,0.007220682,0.04190124,0.9293638,0.36670843,-0.06878662,0.87516785,10.007614,-0.001800537,-0.03199768,-0.11148071
2022/12/8 19:49,10682,-0.27437526,0.34891212,0.039468765,-0.1694449,0.82093054,9.77076,0.00746705,0.042303324,0.92867404,0.36840087,-0.46203613,1.1858063,9.960922,0.032287598,-0.0181427,-0.053955078
2022/12/8 19:49,10721,-0.3005216,0.2050227,-0.16677666,-0.16461267,0.8327681,9.769841,0.007946247,0.042551234,0.92859674,0.36855716,-0.46443176,1.0062408,9.662842,-0.023101807,-0.021347046,0.041915894
2022/12/8 19:49,10762,0.08886911,-0.14350641,0.00609684,-0.15724085,0.8205553,9.770995,0.007995259,0.041596122,0.9289605,0.36774758,-0.033477783,0.6956024,9.906448,-0.047607422,-0.030929565,0.018478394
2022/12/8 19:49,10801,0.11387755,-0.043622077,0.028122902,-0.14327349,0.80325323,9.772649,0.008369871,0.04070405,0.92890275,0.36798474,-0.007141113,0.7746124,9.897476,-0.009262085,-0.0181427,-0.014541626
2022/12/8 19:49,10842,0.2371523,0.040431857,-0.06148529,-0.13837531,0.79863507,9.773097,0.008418145,0.04041772,0.92884237,0.36816764,0.08024597,0.83566284,9.877716,-0.016708374,0.008483887,-0.01348877
2022/12/8 19:49,10882,0.26217484,-0.10284209,0.13223839,-0.14025748,0.7991001,9.773032,0.00839405,0.040604666,0.92857486,0.36882174,0.14131165,0.6961975,10.0130005,0.024841309,0.009552002,-0.053955078
2022/12/8 19:49,10921,-0.047157764,0.18526465,0.07065487,-0.13750324,0.8036163,9.7727,0.008843251,0.040594984,0.928125,0.36994293,-0.17054749,0.9966736,9.940567,-0.012451172,-0.04585266,-0.030532837
2022/12/8 19:49,10962,-0.21075271,0.029007375,0.020190239,-0.13256752,0.8050891,9.772648,0.008842733,0.04076996,0.9281337,0.36990193,-0.31658936,0.812912,9.87413,0.022705078,0.025527954,0.024871826
2022/12/8 19:49,11001,-0.1606948,-0.12697029,0.027393341,-0.14682062,0.8069963,9.772286,0.008205872,0.0409238,0.928509,0.36895657,-0.3123932,0.69021606,9.910049,-0.003921509,-0.021347046,0.016342163
2022/12/8 19:49,11042,-0.02270624,-0.1736803,0.002595902,-0.14833574,0.797038,9.773081,0.007875202,0.040621873,0.9288199,0.36821383,-0.14720154,0.63275146,9.920212,0.035491943,0.020202637,0.009948731
2022/12/8 19:49,11081,0.10490979,-0.08741325,-0.17754745,-0.15385377,0.80676997,9.772198,0.007872799,0.041264527,0.9287923,0.36821198,-0.03526306,0.7362976,9.73526,0.044006348,0.039382935,-0.007095337
2022/12/8 19:49,11122,0.09333035,0.0363425,-0.003505707,-0.16603152,0.81451917,9.771355,0.007454148,0.041764773,0.9285957,0.36865985,-0.08135986,0.91944885,9.971695,-0.011383057,0.023391724,-0.004959106
2022/12/8 19:49,11161,0.22042753,0.21728045,0.021552086,-0.1494239,0.8130498,9.771746,0.008818539,0.04115515,0.92837864,0.3692447,0.11376953,1.0146179,9.882507,-0.024169922,-0.0181427,0.009948731
2022/12/8 19:49,11201,0.3574932,-0.063534915,0.03813362,-0.11793917,0.8206092,9.771544,0.010101177,0.041142892,0.9281314,0.36983413,0.23947144,0.78956604,9.940567,0.04826355,-0.011764526,-7.02E-04
2022/12/8 19:49,11242,0.23840567,-0.3119732,-0.03797722,-0.095506735,0.81830347,9.771983,0.011051139,0.04024114,0.92809767,0.36999094,0.14608765,0.5339813,9.835815,-0.05505371,-0.04371643,-0.012420654
2022/12/8 19:49,11281,-0.12929717,0.024422586,-0.15340042,-0.07992851,0.7935999,9.774159,0.011152468,0.039178178,0.92782944,0.37077376,-0.23518372,0.84703064,9.686783,-0.00819397,0.002090454,-0.05290222
2022/12/8 19:49,11322,-0.20192087,0.36103362,-0.5081091,-0.099351875,0.7844154,9.774723,0.009506099,0.038728278,0.927955,0.37055272,-0.28546143,1.152298,9.397079,-0.13069153,0.09263611,0.051498413
2022/12/8 19:49,11361,0.18138856,0.39942592,0.17015171,-0.12657903,0.73251116,9.778435,0.00741064,0.03651206,0.928294,0.3699759,0.04673767,1.1457062,10.031555,-0.14666748,0.043640137,0.032318115
2022/12/8 19:49,11401,0.29165137,0.2845347,0.3375883,-0.1440119,0.6895917,9.781315,0.006072062,0.03540292,0.92860055,0.36933827,0.16345215,0.978714,10.217102,-0.010314941,0.051086426,0.038711548
2022/12/8 19:49,11441,0.14310044,0.24096513,-0.3590412,-0.15648192,0.6909095,9.78103,0.005507226,0.035613637,0.92879295,0.36884272,-0.046035767,0.9613495,9.488068,-0.047607422,0.001022339,0.053634644
2022/12/8 19:49,11482,-0.03724721,0.3843708,-0.74290466,-0.14294255,0.6615478,9.783267,0.005705699,0.03374452,0.9294704,0.36730567,-0.16815186,1.0631104,9.148087,-0.122177124,-0.09484863,0.13139343
2022/12/8 19:49,11521,0.321593,0.2961772,-0.22282696,-0.09980821,0.6297727,9.785898,0.007369282,0.03177389,0.9303929,0.3651098,0.25143433,0.9128723,9.670624,0.024841309,-0.060760498,0.079193115
2022/12/8 19:49,11562,-0.38758278,0.7150912,-0.5538082,-0.077698156,0.64491695,9.785111,0.008125259,0.03158644,0.93140256,0.36252657,-0.46263123,1.3659668,9.333633,-0.17224121,0.003158569,0.22619629
2022/12/8 19:49,11601,-0.35502467,0.48961997,1.3918095,-0.06602598,0.5515838,9.790903,0.007284825,0.02578111,0.9331111,0.35858896,-0.42851257,1.0403595,11.304672,-0.28941345,-0.2333374,0.15802002
2022/12/8 19:49,11642,-0.6756644,1.4354078,0.6355572,0.031941485,0.4705258,9.795303,0.010678955,0.021204393,0.93344814,0.35792586,-0.6344147,1.9621277,10.481064,-0.10620117,-0.12361145,0.011016846
2022/12/8 19:49,11681,-0.47450888,2.1229393,0.07738781,0.028638523,0.46018583,9.795804,0.009403603,0.021558687,0.93398017,0.35654986,-0.42253113,2.5529022,9.951935,-0.03907776,0.15441895,0.17506409
2022/12/8 19:49,11722,0.4146925,1.1883376,-0.3753004,-0.009670595,0.46667337,9.795535,0.0081461,0.022462158,0.934564,0.3549918,0.42681885,1.6042023,9.47789,0.005661011,-0.05117798,0.005691528
2022/12/8 19:49,11761,0.25098002,1.0781674,-1.4250202,0.026843414,0.47843918,9.794936,0.010585583,0.022197625,0.93398255,0.35647136,0.3059082,1.5706787,8.372971,-0.004989624,-0.09803772,-0.07632446
2022/12/8 19:49,11802,-0.12137313,1.210211,-1.6782331,0.044154063,0.4930863,9.794146,0.010739453,0.02308912,0.9330803,0.35876554,-0.10470581,1.7250977,8.198181,-7.32E-04,0.109680176,-0.11468506
2022/12/8 19:49,11842,-1.1482779,2.033671,-0.9705658,-0.008619641,0.48534322,9.794628,0.008192837,0.02292361,0.9325765,0.36015064,-1.1659241,2.5056152,8.812897,-0.24255371,0.03617859,0.06428528
2022/12/8 19:49,11881,-0.40777734,1.722522,0.7891369,-0.021194568,0.41234872,9.797955,0.006487285,0.019827053,0.93333715,0.3583945,-0.45365906,2.149475,10.6067505,-0.08169556,-0.027740479,0.114349365
2022/12/8 19:49,11922,-0.29952398,1.8529556,0.36039734,0.005644443,0.4575009,9.795972,0.009588123,0.023023477,0.93339354,0.35798666,-0.31359863,2.326645,10.176392,0.26132202,-0.10443115,0.008895874
2022/12/8 19:49,11961,-0.5882658,1.7253726,-0.021199226,0.018064812,0.5766995,9.789661,0.01175961,0.02812114,0.93361044,0.3569909,-0.60328674,2.330841,9.822647,0.16757202,-0.009628296,0.12181091
2022/12/8 19:49,12002,-0.33902967,1.0768946,0.8019476,0.030289184,0.64167476,9.785588,0.013626929,0.030628143,0.93406457,0.35552722,-0.32676697,1.7185211,10.70372,0.13243103,-0.054367065,0.08558655
2022/12/8 19:49,12041,0.36316904,0.5675859,1.4672413,0.034295443,0.7258477,9.779691,0.014841335,0.03599056,0.9339944,0.35516033,0.42681885,1.204361,11.29628,0.4008789,0.16827393,-0.033721924
2022/12/8 19:49,12082,0.36623663,-0.08219564,0.7735977,-0.055270594,0.8809138,9.766849,0.012375224,0.044648048,0.9331273,0.3565485,0.24305725,0.72132874,10.628906,0.15159607,0.28012085,-0.10935974
2022/12/8 19:49,12121,-0.04071507,-0.98030376,1.4774313,-0.12777133,0.8726176,9.766913,0.009524252,0.041910116,0.93225396,0.35924283,-0.17771912,-0.2171936,11.483032,-0.41618347,-0.1438446,-0.2084198
2022/12/8 19:49,12162,0.010853782,-1.0710204,2.3785105,-0.069105156,0.70524865,9.781014,0.009976072,0.034399025,0.9305859,0.36431718,-0.07118225,-0.3829956,12.337769,-0.03163147,-0.12680054,-0.4044342
2022/12/8 19:49,12201,-0.4582989,-0.26280105,0.6200714,-0.06441763,0.7614334,9.776833,0.011467755,0.038313944,0.9272181,0.3723804,-0.53326416,0.54356384,10.354172,0.39660645,0.09263611,-0.43959045
2022/12/8 19:49,12241,-0.19650345,-0.47441238,-1.2192011,-0.14521797,0.9383423,9.760574,0.011073832,0.048527572,0.9243541,0.37827504,-0.34292603,0.4729309,8.711746,0.50419617,0.28118896,-0.23931885
2022/12/8 19:49,12282,0.44767204,-1.1170057,-1.5103226,-0.25577772,1.1138084,9.739835,0.009491716,0.059395675,0.9224584,0.38138235,0.19337463,0.003067017,8.356812,0.32203674,0.13418579,-0.15409851
2022/12/8 19:49,12321,0.33442354,-1.1413592,-1.4262152,-0.27772284,1.166216,9.733098,0.009629113,0.05965339,0.92151403,0.38361523,0.056915283,0.026412964,8.46933,-0.15945435,-0.022415161,-0.080596924
2022/12/8 19:49,12362,0.20461485,-1.3029646,0.18466759,-0.28684932,1.0899316,9.741671,0.007105397,0.05631682,0.9217033,0.38371995,-0.110687256,-0.21299744,10.099777,-0.1477356,0.09263611,0.028060913
2022/12/8 19:49,12401,0.12770459,-1.3810593,0.7830324,-0.3009456,1.027246,9.748055,0.006075167,0.053712893,0.9222991,0.38267797,-0.17173767,-0.39137268,10.582809,-0.05293274,-0.0884552,0.04084778
2022/12/8 19:49,12441,0.36151016,-1.0460932,-0.2847023,-0.2535987,1.0095661,9.751248,0.008583872,0.052482646,0.9222957,0.38280883,0.09761047,0.06173706,9.431808,0.06637573,-0.13212585,-0.04650879
2022/12/8 19:49,12481,0.03422378,-0.1269021,-1.2109928,-0.21076714,1.0163058,9.751569,0.010021828,0.051526774,0.92196906,0.3836895,-0.18132019,0.8625946,8.62915,-0.10406494,-0.0415802,0.014221191
2022/12/8 19:49,12521,0.21732564,0.16929424,-0.70064545,-0.18952411,0.9685783,9.756861,0.009941578,0.048329137,0.9225111,0.3828038,0.06529236,1.1486969,9.178619,-0.21591187,-0.042648315,0.12287903
2022/12/8 19:49,12562,0.433715,-5.62E-04,0.17960548,-0.16318594,0.876151,9.76607,0.009263719,0.044076383,0.9234129,0.38115624,0.26161194,0.8560028,10.036942,-0.15945435,-0.003234863,0.09411621
2022/12/8 19:49,12602,0.27817568,-0.04184127,0.18014431,-0.1644112,0.85123336,9.768252,0.008762118,0.043823622,0.92371404,0.3804669,0.119155884,0.8200989,10.005814,0.08874512,0.048965454,0.015274048
2022/12/8 19:49,12641,-0.18149057,0.38130486,-0.6981716,-0.17961356,0.881816,9.765272,0.008641848,0.045227665,0.9234792,0.38087523,-0.36746216,1.2540436,9.130127,-0.00819397,0.014877319,0.023803711
2022/12/8 19:49,12681,-0.2586644,0.5550723,-0.6432953,-0.19165364,0.8792514,9.765274,0.007735866,0.0453154,0.9236376,0.3804999,-0.44587708,1.4629364,9.192383,-0.018844604,0.06813049,0.067474365
2022/12/8 19:49,12722,0.079111725,0.6458512,-0.65906906,-0.22700499,0.8832536,9.764155,0.005885902,0.046429534,0.9242132,0.37899825,-0.12385559,1.5407562,9.166641,-0.002868652,0.13737488,0.12287903
2022/12/8 19:49,12761,0.44053474,0.9480153,-0.36868382,-0.27634275,0.89355284,9.761947,0.003538313,0.04805121,0.9248095,0.37736708,0.15567017,1.8747406,9.49884,0.012054443,0.19490051,0.14630127
2022/12/8 19:49,12801,0.43920383,1.1157658,0.29885387,-0.34949782,0.9079796,9.758269,5.97E-04,0.049780075,0.92571455,0.3749322,0.08503723,2.0255737,10.136887,-0.032684326,0.13311768,0.1953125
2022/12/8 19:49,12842,0.36630312,0.968412,0.9202528,-0.36252356,0.91118485,9.757495,4.96E-04,0.05030639,0.9267293,0.37234634,0.007232666,1.8843231,10.78273,0.07597351,-0.014953613,0.17401123
2022/12/8 19:49,12882,0.3961657,0.91038465,0.6642437,-0.35702267,0.98639816,9.750381,0.001937705,0.054220937,0.9274003,0.37011486,0.03416443,1.9022675,10.518173,0.26771545,0.05003357,0.14204407
2022/12/8 19:49,12921,0.37577975,1.0523771,0.1657772,-0.36663422,1.0869933,9.739323,0.003176611,0.05929211,0.9275898,0.36885172,-0.011917114,2.1440887,9.977081,0.11431885,0.07347107,0.09411621
2022/12/8 19:49,12962,0.20327488,0.73733985,1.155302,-0.40153778,1.1048701,9.735934,0.001391202,0.059937794,0.9280194,0.3676758,-0.1855011,1.8472137,10.922791,-0.11685181,0.12460327,0.1526947
2022/12/8 19:49,13002,-0.062218964,0.23385239,2.1382408,-0.4098926,1.054583,9.741162,1.07E-04,0.056637283,0.92953295,0.36436337,-0.45724487,1.3396301,11.980423,-0.23828125,-0.058624268,0.22087097
2022/12/8 19:49,13041,-0.24851957,-0.85503113,2.8419695,-0.37451142,0.9609662,9.752265,7.49E-04,0.05159119,0.93169475,0.35955894,-0.61286926,0.045578003,12.746567,-0.060394287,-0.2652893,0.3060913
2022/12/8 19:49,13081,0.5451452,-1.3751241,0.08740616,-0.22514777,1.0059527,9.75232,0.010523522,0.053421143,0.9324042,0.35729238,0.22151184,-0.39974976,9.620346,0.52124023,-0.37394714,0.053634644
2022/12/8 19:49,13122,-0.62793714,-1.688051,-1.5946217,-0.14180146,1.1607791,9.736676,0.01369914,0.058794256,0.93315583,0.35436663,-0.7439575,-0.48773193,8.229309,0.063186646,0.20768738,0.26667786
2022/12/8 19:49,13162,-0.82520103,-2.3547726,0.82221127,-0.1821816,1.1359708,9.73893,0.011906194,0.057142172,0.93490434,0.35006696,-1.0097046,-1.1970215,10.664215,-0.05718994,-0.21522522,0.125
2022/12/8 19:49,13201,-0.53613204,-1.3869302,-0.31636238,-0.087151,1.1403967,9.739727,0.016213613,0.056118056,0.93516314,0.3493677,-0.65296936,-0.246521,9.635315,0.27304077,-0.23652649,-0.017745972
2022/12/8 19:49,13242,-0.25505406,-0.81737125,-2.2967062,-0.049823415,1.27085,9.723828,0.020627769,0.062454555,0.93449146,0.34985664,-0.32377625,0.41667175,7.572098,0.3018036,0.021270752,3.66E-04
2022/12/8 19:49,13281,-0.25846413,-0.59351933,-1.9508877,-0.064632036,1.3284206,9.716043,0.020268802,0.06419122,0.93466175,0.3491075,-0.32437134,0.75305176,7.8025513,-0.1402893,0.03404236,0.079193115
2022/12/8 19:49,13321,-0.17816302,-0.6095669,0.07805443,-0.06537848,1.2331258,9.728593,0.018315975,0.058787394,0.9358292,0.34703344,-0.24655151,0.6100006,9.85437,-0.27983093,0.006347656,0.13671875
2022/12/8 19:49,13362,0.09997543,-0.424783,0.8387871,-0.067516066,1.1445514,9.739395,0.016895518,0.055644847,0.9364209,0.34602603,0.032974243,0.72372437,10.658829,-0.049728394,-0.002166748,0.019546509
2022/12/8 19:49,13401,0.06383058,-0.22114253,0.35892773,-0.05778465,1.1318644,9.740941,0.017594205,0.055194825,0.93624455,0.3465402,-0.004150391,0.91645813,10.180588,0.022705078,-0.058624268,-0.019866943
2022/12/8 19:49,13441,0.23742871,-0.07654703,-0.45942688,-0.032633398,1.1423216,9.739837,0.019273894,0.05534156,0.9353957,0.3487129,0.17901611,1.1193695,9.232483,0.045074463,-0.10549927,-0.13491821
2022/12/8 19:49,13482,-0.099188745,0.38516724,-1.1074686,0.004701631,1.1517664,9.738778,0.021188114,0.05484012,0.933838,0.35283163,-0.14120483,1.5605011,8.706955,-0.035888672,-0.10443115,-0.16793823
2022/12/8 19:49,13521,-0.19519034,0.5949807,-0.95531654,0.024453677,1.1456857,9.739466,0.022000102,0.0541972,0.9324689,0.3564834,-0.19926453,1.7687988,8.849411,-0.025238037,0.016998291,-0.096572876
2022/12/8 19:49,13562,-0.13056168,0.5036181,-0.45220852,0.006064038,1.1485445,9.739158,0.02139054,0.05469928,0.93124706,0.3596239,-0.10948181,1.6616516,9.344406,0.012054443,-0.007492065,-0.1253357
2022/12/8 19:49,13601,-0.26381293,0.5030432,-0.4989338,0.014469827,1.1567239,9.738181,0.022281718,0.05475732,0.92987096,0.36310494,-0.23338318,1.6754303,9.297134,-0.001800537,-0.05117798,-0.1253357
2022/12/8 19:49,13642,-0.42028433,0.68411946,-0.227808,0.0111487,1.1671957,9.736936,0.022346513,0.055619717,0.9281393,0.36737517,-0.40338135,1.8717499,9.602982,0.045074463,0.018066406,-0.16793823
2022/12/8 19:49,13681,-0.83141184,1.0542415,-0.35648632,-0.002903766,1.1877235,9.734459,0.022328755,0.05636929,0.9267405,0.37077746,-0.8403168,2.2500305,9.43898,-0.05079651,-0.016021729,-0.051834106
2022/12/8 19:49,13721,-0.57337564,1.0751281,0.29327583,-0.009202356,1.1707015,9.736516,0.021717293,0.055327166,0.92631865,0.37202287,-0.57395935,2.2584076,10.117737,-0.10192871,-0.017089844,0.026992798
2022/12/8 19:49,13762,-0.32572943,1.1294602,0.8285303,-0.003391764,1.1440878,9.739684,0.021737292,0.05401245,0.92602485,0.37294522,-0.30221558,2.2949219,10.666611,-0.058258057,-0.037322998,0.019546509
2022/12/8 19:49,13801,0.038557205,0.9913863,1.2880335,0.011662492,1.1318569,9.741106,0.022476513,0.053186856,0.9254947,0.3743335,0.1113739,2.0842285,11.165207,-0.018844604,-0.06289673,-0.033721924
2022/12/8 19:49,13842,0.25615004,0.32653844,1.4997282,0.037093878,1.1424598,9.739804,0.024012752,0.053412538,0.9241146,0.37760136,0.2885437,1.4850922,11.359131,0.074905396,-0.063949585,-0.15835571
2022/12/8 19:49,13881,0.2110966,-0.17490709,1.0134706,0.060273208,1.1786451,9.735376,0.02619289,0.054621927,0.92188823,0.3826911,0.27598572,1.0517273,10.885681,0.121780396,-0.08099365,-0.23078918
2022/12/8 19:49,13922,0.14012173,-0.8035983,0.7581873,0.06619048,1.2052593,9.7320795,0.026930608,0.05536975,0.9197747,0.38758668,0.21731567,0.4507904,10.573837,-0.006057739,0.0052948,-0.18392944
2022/12/8 19:49,13961,-0.40967998,-1.6241249,1.4182053,0.05198871,1.1756531,9.735786,0.025752505,0.054177757,0.9178312,0.39241245,-0.35488892,-0.43327332,11.283722,0.0365448,0.031921387,-0.13172913
2022/12/8 19:49,14002,0.03510212,-1.968612,0.2467804,0.043322276,1.234239,9.728575,0.028072817,0.059032824,0.9160159,0.39578006,0.08683777,-0.6882477,10.020172,0.532959,-0.066085815,-0.27020264
2022/12/8 19:49,14041,-0.2789782,-1.2127994,-2.4860296,0.03260282,1.4134924,9.704193,0.030271625,0.066944145,0.91344434,0.4002768,-0.24894714,0.23231506,7.3237,0.24746704,0.15229797,-0.10189819
2022/12/8 19:49,14082,0.22083876,-1.1951337,-1.580308,-0.023609845,1.4247427,9.702573,0.026936756,0.065399244,0.9129575,0.4018781,0.21792603,0.24429321,8.424438,-0.30540466,0.032989502,-0.011352539
2022/12/8 19:49,14122,0.4571393,-0.7431555,0.06576347,-0.022619234,1.2758605,9.723273,0.02474667,0.058297835,0.91320974,0.40253806,0.45733643,0.56211853,10.014786,-0.34907532,-0.040512085,0.03126526
2022/12/8 19:49,14161,0.72266674,-0.80303407,0.84287834,-0.006972184,1.1464312,9.739406,0.022907652,0.052710205,0.9133542,0.40308926,0.7320709,0.33407593,10.730652,-0.14987183,0.012741089,-0.029464722
2022/12/8 19:49,14202,0.4337387,-0.7951455,0.3649044,-0.002407145,1.1062068,9.744059,0.023459332,0.052227926,0.9120209,0.4061277,0.44537354,0.31492615,10.284729,0.14094543,-0.060760498,-0.15409851
2022/12/8 19:49,14241,-0.03350289,-0.31099367,-1.4164772,0.018994551,1.1734672,9.73617,0.025681691,0.054647192,0.9105887,0.4088794,-0.02330017,0.8955078,8.388535,0.16119385,-0.035186768,-0.14984131
2022/12/8 19:49,14282,-0.27686495,-0.070094824,-1.6602831,0.003353295,1.194629,9.733614,0.02444063,0.05511561,0.90888757,0.41266006,-0.28007507,1.1223602,8.17186,-0.16159058,0.12779236,-0.07420349
2022/12/8 19:49,14321,-0.20357034,-0.034155488,-0.26510048,-0.045034923,1.1124715,9.743241,0.020667924,0.051622167,0.9089287,0.41322714,-0.23817444,1.1026154,9.504227,-0.24681091,0.03831482,0.041915894
2022/12/8 19:49,14361,-0.1452344,-0.002505183,0.082196236,-0.057177603,1.0304788,9.752192,0.018557064,0.04854423,0.908767,0.4140552,-0.19567871,1.0367737,9.904663,-0.15093994,0.07772827,0.051498413
2022/12/8 19:49,14402,-0.10538067,0.17533827,0.2814865,-0.09138209,0.97767127,9.757366,0.015918706,0.047155943,0.90874773,0.4143676,-0.19747925,1.1528931,10.13031,-0.07104492,0.07559204,0.04724121
2022/12/8 19:49,14441,-0.15647013,0.5385536,-0.35758495,-0.10837397,0.9696915,9.757989,0.015592111,0.047438566,0.90826344,0.41540822,-0.2752838,1.5796509,9.391693,0.0365448,0.009552002,0.03552246
2022/12/8 19:49,14482,-0.06884739,0.94395036,-0.96877956,-0.11882313,0.9892287,9.755906,0.01537015,0.04848622,0.9081684,0.4155034,-0.1627655,1.935791,8.851807,-0.048675537,0.08091736,0.15483093
2022/12/8 19:49,14521,0.3565725,0.6901144,-0.3330269,-0.15074466,0.9667799,9.757715,0.013164515,0.048010897,0.9088604,0.41411886,0.22091675,1.7053528,9.559891,-0.10513306,0.11607361,0.16441345
2022/12/8 19:49,14562,0.25496322,0.780899,0.26170826,-0.17260964,0.94435436,9.759548,0.011846411,0.04748904,0.90941423,0.4130015,0.09880066,1.7825623,10.078232,-0.048675537,0.043640137,0.16973877
2022/12/8 19:49,14601,0.31285694,1.0026929,0.3502655,-0.18826713,0.93358004,9.760296,0.010487013,0.047439322,0.9098243,0.4121399,0.11975098,1.9363861,10.150055,-0.049728394,0.10649109,0.18145752
2022/12/8 19:49,14642,0.46485284,1.2528086,0.9941902,-0.21229193,0.9286554,9.760273,0.009613231,0.047677428,0.9105595,0.4105068,0.2550354,2.1692352,10.853363,-0.03163147,0.011672974,0.13139343
2022/12/8 19:49,14681,0.11663489,1.2909218,1.2126827,-0.218407,0.92802286,9.760198,0.008527128,0.047855806,0.91079545,0.40998632,-0.0657959,2.24823,11.032928,-0.079559326,0.16720581,0.1484375
2022/12/8 19:49,14722,-0.051185936,0.3824833,2.275363,-0.26923102,0.9088427,9.760733,0.006435907,0.04809667,0.91193426,0.40745693,-0.318985,1.2534485,12.14682,0.05253601,0.003158569,0.22407532
2022/12/8 19:49,14761,0.13899356,-0.53946644,0.9611101,-0.25681108,0.94150764,9.757971,0.008037735,0.049524926,0.9123773,0.40626392,-0.11009216,0.41427612,10.8042755,0.08981323,-0.050109863,0.14524841
2022/12/8 19:49,14801,0.5522427,-1.0496602,0.28355408,-0.21976419,0.94996995,9.758056,0.009978893,0.0484016,0.9130139,0.4049239,0.35977173,-0.10107422,10.154251,0.007797241,-0.11508179,0.13246155
2022/12/8 19:49,14843,0.43165708,-1.4178889,-0.036367416,-0.17812864,0.955666,9.758348,0.012080432,0.04922168,0.9128656,0.40510213,0.16046143,-0.43685913,9.766983,0.20593262,0.028717041,0.012084961
2022/12/8 19:49,14881,-0.5814349,-1.4702203,-0.44744682,-0.19269727,1.0068041,9.752928,0.011548346,0.050878834,0.9124868,0.40576577,-0.8355255,-0.49491882,9.473099,-0.049728394,0.008483887,0.06535339
2022/12/8 19:49,14922,-0.5670146,-1.5904614,0.2173481,-0.18774194,0.97429883,9.756326,0.011978506,0.048887562,0.9123277,0.40635538,-0.7625122,-0.6152344,10.132706,0.019500732,-0.09378052,0.04298401
2022/12/8 19:49,14961,-0.5012735,-0.90907,-0.5131092,-0.15427618,0.9639702,9.757937,0.013151404,0.04778016,0.912252,0.40662065,-0.6469879,0.115600586,9.343811,-0.027359009,-0.0927124,0.08239746
2022/12/8 19:49,15001,0.018709727,-0.6733056,-0.7714834,-0.11578866,0.94834214,9.760002,0.014484947,0.046154507,0.9123401,0.40656543,-0.08015442,0.2748108,9.076263,-0.06997681,-0.05117798,0.067474365
2022/12/8 19:49,15041,-0.029258177,-0.6962277,-0.13103294,-0.10513625,0.8982085,9.764864,0.013358308,0.043265317,0.9123555,0.4068871,-0.13941956,0.21496582,9.712524,-0.15838623,0.012741089,-0.018814087
2022/12/8 19:49,15082,-0.014762513,-0.44425935,0.31139946,-0.10375248,0.84977245,9.769212,0.013031667,0.04160775,0.911189,0.40967494,-0.11128235,0.45498657,10.17041,0.007797241,-0.03199768,-0.11148071
2022/12/8 19:49,15121,-0.087823756,-0.015524268,-0.4853115,-0.10344007,0.853037,9.768931,0.013078065,0.041878413,0.9094189,0.41356075,-0.1968689,0.8703766,9.368347,-0.001800537,0.015945435,-0.13598633
2022/12/8 19:49,15161,0.056146115,0.07270241,-0.68580055,-0.10736484,0.8541406,9.768792,0.013425624,0.04188897,0.90745485,0.41784063,-0.019699097,0.9906769,9.040344,3.36E-04,-0.040512085,-0.16368103
2022/12/8 19:49,15202,-0.14814007,0.3901648,-1.0846786,-0.10463149,0.8417422,9.769898,0.013080748,0.040914573,0.9056031,0.4219453,-0.29563904,1.2570343,8.848221,-0.16903687,0.023391724,-0.13172913
2022/12/8 19:49,15241,-0.011877596,0.10446614,0.29798222,-0.12997249,0.7680557,9.775662,0.010409473,0.038129244,0.9041575,0.42536682,-0.14898682,0.8823395,10.126724,-0.07849121,0.06707764,-0.07527161
2022/12/8 19:49,15282,0.07705203,-0.05973333,0.13701153,-0.1448375,0.7650073,9.775692,0.010194249,0.03846378,0.9024988,0.42885035,-0.06997681,0.7548523,9.850189,0.010986328,-0.07034302,-0.17007446
2022/12/8 19:49,15321,-0.037852876,0.43716156,-0.4253273,-0.11728847,0.7560586,9.776758,0.011664379,0.037025444,0.8991861,0.4358411,-0.16934204,1.1828156,9.432999,-0.032684326,-0.077804565,-0.25636292
2022/12/8 19:49,15361,-0.27711904,0.77513695,-0.7519779,-0.10977139,0.7658353,9.776085,0.012264084,0.037981167,0.8960042,0.44224826,-0.3728485,1.543747,9.1008,0.061050415,0.024459839,-0.2361145
2022/12/8 19:49,15401,-0.20267768,0.5673536,-0.70781326,-0.13087292,0.78375363,9.774405,0.011629419,0.038832653,0.8935056,0.44721875,-0.3117981,1.3486176,9.164841,-0.026306152,0.03617859,-0.23718262
2022/12/8 19:49,15441,-0.5341109,0.8900516,-0.047735214,-0.15068874,0.78118116,9.774325,0.011162518,0.03909392,0.8906023,0.452962,-0.68110657,1.6730347,9.791534,3.36E-04,-0.003234863,-0.24357605
2022/12/8 19:49,15482,-0.6700909,1.0402328,0.298851,-0.1573643,0.7937983,9.773204,0.011573317,0.039852142,0.887697,0.4585542,-0.8403168,1.848999,10.166824,0.024841309,-0.019210815,-0.14344788
2022/12/8 19:49,15521,-0.5661492,1.22317,0.6755161,-0.14926961,0.817312,9.771392,0.013036365,0.040824413,0.8852282,0.46317858,-0.73017883,2.0549011,10.595978,0.10153198,-0.084198,-0.16368103
2022/12/8 19:49,15562,-0.3577863,1.2740352,0.8115797,-0.1213681,0.905491,9.764002,0.016805358,0.044358734,0.88252246,0.46787176,-0.48298645,2.2027435,10.714493,0.32203674,-0.13319397,-0.1487732
2022/12/8 19:49,15601,-0.35206473,0.653633,0.27901936,-0.09584006,1.0194974,9.753042,0.020505793,0.048504226,0.8800825,0.47189155,-0.4925537,1.7185211,10.062073,0.11431885,-0.0415802,-0.08911133
2022/12/8 19:49,15642,-0.40521026,-0.28616166,1.2170544,-0.08672451,1.0267922,9.752361,0.020547278,0.047427513,0.8784079,0.47510844,-0.5147095,0.7219391,11.118515,-0.18289185,0.010620117,0.034454346
2022/12/8 19:49,15681,-0.13098428,-1.7007279,2.9609432,-0.09637418,0.9281676,9.762152,0.017956069,0.043159775,0.8788584,0.47478706,-0.2836609,-0.73553467,12.824387,-0.1711731,-0.00642395,0.067474365
2022/12/8 19:49,15722,-0.3364733,-1.8785905,1.2426605,-0.06739377,0.94838196,9.760452,0.020957861,0.045866415,0.876628,0.47851896,-0.4273224,-0.87919617,11.076614,0.46798706,0.020202637,-0.26275635
2022/12/8 19:49,15761,-0.9514163,-0.9721606,-0.79081917,-0.12231148,1.1428974,9.739057,0.022760503,0.057526853,0.8741414,0.48171508,-1.0139008,0.07310486,9.215729,0.62457275,0.30569458,-0.1295929
2022/12/8 19:49,15801,-1.0871841,-0.95942855,-1.4829922,-0.2590083,1.3421444,9.710919,0.020880288,0.06831413,0.8739975,0.4806511,-1.3448944,0.41487122,8.337051,0.23362732,0.25881958,0.21661377
2022/12/8 19:49,15842,0.14750099,-1.5033603,-1.0002508,-0.31483728,1.3728915,9.704969,0.019237125,0.06903277,0.87663007,0.47579843,-0.0771637,-0.14117432,8.88353,-0.12857056,0.025527954,0.38172913
2022/12/8 19:49,15882,0.68700546,-1.5184444,-0.131526,-0.30197355,1.3103962,9.714014,0.017630452,0.06573259,0.88011503,0.4698573,0.35798645,-0.1950531,9.671219,-0.102996826,0.046829224,0.2421875
2022/12/8 19:49,15922,0.5661148,-1.1366032,0.053299904,-0.3052981,1.2603824,9.720525,0.015873836,0.063780986,0.88170016,0.4672097,0.20594788,0.176651,9.965103,-0.09767151,0.07772827,0.11116028
2022/12/8 19:49,15961,-0.050171196,-0.6944283,0.2673788,-0.32271987,1.2179282,9.725374,0.014420237,0.062584825,0.88262755,0.46566495,-0.41714478,0.58366394,10.100388,0.001403809,0.008483887,0.14630127
2022/12/8 19:49,16001,-0.08379629,-0.5064055,-0.6198492,-0.31994623,1.2298043,9.723971,0.014929717,0.063515745,0.88368696,0.4635086,-0.40696716,0.7428894,9.282166,0.072769165,0.004226685,0.17933655
2022/12/8 19:49,16042,0.11522284,-0.54445255,-0.97782993,-0.31021133,1.234957,9.723633,0.015153707,0.0628511,0.8852049,0.46068683,-0.15797424,0.7243347,8.841629,-0.07423401,-0.016021729,0.2933197
2022/12/8 19:49,16081,0.65755916,-0.7121699,-0.46808338,-0.28973943,1.1992935,9.728728,0.014753112,0.060615968,0.88714164,0.45726117,0.36097717,0.5016632,9.368347,-0.12857056,0.015945435,0.25923157
2022/12/8 19:49,16121,0.2546559,-0.5225135,0.3263073,-0.27517584,1.1381462,9.736493,0.01380103,0.05729635,0.8891009,0.45390108,-0.033477783,0.62257385,10.179398,-0.1477356,-0.03413391,0.21554565
2022/12/8 19:49,16161,-0.11976296,-0.15375578,0.1471138,-0.24865912,1.0985808,9.741749,0.014412867,0.055633552,0.8901212,0.45208564,-0.42851257,1.0553284,9.882507,0.014175415,-0.061828613,0.18572998
2022/12/8 19:49,16202,-0.56301737,0.45239806,-0.71953964,-0.2112144,1.1016655,9.742285,0.015837103,0.054894086,0.8914885,0.44942635,-0.7565155,1.559906,9.049332,-0.08808899,-0.057556152,0.3210144
2022/12/8 19:49,16242,-0.5242313,0.7581179,-0.39335728,-0.19148415,1.0601858,9.747293,0.015223492,0.052312028,0.8938426,0.44505855,-0.726593,1.8418274,9.412643,-0.24787903,0.011672974,0.48399353
2022/12/8 19:49,16281,-0.28317082,0.7221767,0.2292223,-0.16848779,0.98290163,9.755814,0.01429857,0.048642214,0.8982445,0.43656197,-0.4093628,1.6437073,10.025558,-0.08062744,-0.027740479,0.55537415
2022/12/8 19:49,16322,0.17664309,0.5999037,-0.30261135,-0.14721441,0.97836554,9.756614,0.014502211,0.04855263,0.9025679,0.42755526,0.003036499,1.5886383,9.553314,0.004592896,0.10116577,0.58839417
2022/12/8 19:49,16361,0.15772764,0.6164155,0.047916412,-0.16794604,0.9923259,9.7548685,0.013496548,0.04976391,0.9065686,0.4188971,4.58E-05,1.6119843,9.903458,0.047210693,0.07772827,0.62461853
2022/12/8 19:49,16401,0.07382466,0.7428974,-0.2123003,-0.16397381,1.0274754,9.751297,0.014009433,0.051759876,0.91138107,0.40805537,-0.09272766,1.8083038,9.604187,0.06530762,0.084121704,0.70451355
2022/12/8 19:49,16442,-0.14014481,0.8261063,0.092983246,-0.17527561,1.0655074,9.747019,0.013251676,0.05416903,0.9164514,0.396241,-0.2932434,1.8986816,9.900467,0.09088135,0.1586914,0.7673645
2022/12/8 19:49,16481,-0.573523,0.9004036,0.35206604,-0.19714351,1.1160538,9.740941,0.012677177,0.057241023,0.9221899,0.38226768,-0.7954254,2.0405426,10.175201,0.107925415,0.111816406,0.8632355
2022/12/8 19:49,16522,-0.59348816,0.8508698,0.34356308,-0.21553437,1.1682395,9.734431,0.0113913,0.060016267,0.9284798,0.36632442,-0.7631073,1.9154358,10.221283,0.016311646,0.21940613,1.0251465
2022/12/8 19:49,16561,-0.68009657,-0.010291576,1.4731903,-0.27227545,1.195199,9.729736,0.008369068,0.062060572,0.93475085,0.34974182,-0.9833679,1.176239,11.29689,0.061050415,0.24177551,1.1647034
2022/12/8 19:49,16602,-0.68498254,-0.6949668,1.1469336,-0.29378888,1.1993759,9.728596,0.005625291,0.06259935,0.9439036,0.32418454,-0.99235535,0.4615631,10.999405,-0.10939026,0.14376831,1.3394012
2022/12/8 19:49,16641,-0.07558939,-1.0151757,0.9351473,-0.27171853,1.1880476,9.730627,0.005188067,0.062041864,0.9510111,0.30282292,-0.3728485,0.18203735,10.5594635,0.035491943,0.04257202,1.3330078
2022/12/8 19:49,16682,-0.32668504,-1.5515772,0.80172634,-0.25301298,1.152592,9.7353945,0.002876846,0.05941851,0.96052456,0.2717604,-0.61346436,-0.41889954,10.718079,-0.15626526,0.24284363,1.3457947
2022/12/8 19:49,16721,-0.41807497,-2.0846484,0.6890898,-0.26210937,1.1344126,9.737289,0.002148361,0.060419958,0.9668282,0.24816927,-0.70684814,-0.93006897,10.451126,0.27622986,0.035110474,1.1583099
2022/12/8 19:49,16762,-1.0652534,-1.44429,-1.6631498,-0.24537139,1.2398766,9.724858,0.002156921,0.06560001,0.97150886,0.22773351,-1.2946167,-0.22616577,8.229919,0.16651917,0.1938324,1.0848083
2022/12/8 19:49,16801,-1.5343659,-1.0032239,-1.3705873,-0.2894896,1.2585074,9.721252,-0.001943988,0.065183215,0.97638434,0.20596346,-1.8452911,0.2670288,8.507034,-0.23295593,0.21087646,1.238205
2022/12/8 19:49,16842,-1.3398201,-1.2949044,-0.34276772,-0.31698036,1.1690412,9.73156,-0.005419984,0.060326815,0.98181254,0.17993164,-1.5717468,-0.15673828,9.521591,-0.29794312,0.123535156,1.4043884
2022/12/8 19:49,16881,-0.43891457,-1.4520657,-0.259017,-0.30801842,1.0504416,9.745362,-0.007169191,0.05454958,0.98611206,0.15670331,-0.7032471,-0.42189026,9.602386,-0.38209534,0.10649109,1.3660431
2022/12/8 19:49,16921,-0.055098504,-1.2675649,0.33335972,-0.29812905,0.876454,9.762855,-0.009191685,0.046351403,0.9901786,0.13158052,-0.35310364,-0.3542633,10.233261,-0.40553284,0.10116577,1.2499237
2022/12/8 19:49,16962,0.05197668,-1.0709414,0.6491623,-0.29109278,0.75009394,9.773587,-0.01073359,0.039085098,0.99359584,0.1054726,-0.2363739,-0.31056213,10.50441,-0.1988678,0.06813049,1.1338043
2022/12/8 19:49,17001,-0.46013343,-0.7401352,0.29754066,-0.28888768,0.7016492,9.77725,-0.011697494,0.036775425,0.995684,0.08440411,-0.8115845,0.018630981,10.139282,-0.07849121,0.074523926,1.1242218
2022/12/8 19:49,17042,-0.5229315,-0.5525059,0.06954479,-0.29122657,0.67288065,9.779202,-0.012598576,0.03471901,0.9974377,0.06126881,-0.7996216,0.13954163,9.95134,-0.112579346,0.024459839,1.1348724
2022/12/8 19:49,17081,-0.5866127,-0.30789453,-0.5048342,-0.2750697,0.63620824,9.7821245,-0.012623291,0.03234806,0.99857086,0.04062577,-0.8570709,0.30773926,9.3845215,-0.16903687,0.051086426,1.1359406
2022/12/8 19:49,17122,0.017652422,-0.24889922,0.05251026,-0.2766592,0.5735305,9.785954,-0.01358905,0.028763628,0.9992905,0.020159068,-0.24116516,0.3789673,9.946548,-0.1711731,0.076660156,1.0912018
2022/12/8 19:49,17161,0.19259375,0.070862055,-0.10383129,-0.27324355,0.53101057,9.78845,-0.013788946,0.026984489,0.999536,0.003095176,-0.062194824,0.61958313,9.753815,-0.08595276,0.037246704,0.9761505
2022/12/8 19:49,17201,-0.014452279,0.451959,0.17969036,-0.2738796,0.5208242,9.78898,0.014612865,-0.026499223,-0.9994191,0.015676495,-0.2615204,1.0188141,10.063873,0.00352478,0.09689331,0.9420624
2022/12/8 19:49,17241,0.03505835,0.49569827,0.2530365,-0.27774054,0.5448841,9.787561,0.014830205,-0.02752501,-0.9989803,0.032570183,-0.19148254,1.0319824,10.164429,0.046142578,-0.047973633,0.94525146
2022/12/8 19:49,17282,0.39985633,0.28417224,-0.07104015,-0.23102781,0.59215724,9.786029,0.013054728,-0.030094212,-0.998342,0.047299072,0.088027954,0.8667755,9.742447,0.1729126,-0.011764526,0.75883484
2022/12/8 19:49,17321,-0.002746433,0.6372393,-0.5287256,-0.20547011,0.67950654,9.780922,0.012136165,-0.035114676,-0.9974932,0.06022403,-0.21183777,1.3013306,9.347412,0.18888855,-0.050109863,0.7151642
2022/12/8 19:49,17361,0.24535978,0.5531445,-0.53270626,-0.17149629,0.7543991,9.776086,0.011255635,-0.038702384,-0.9966155,0.07164464,0.054519653,1.2881622,9.403671,0.1537323,-0.008560181,0.65763855
2022/12/8 19:49,17402,0.14620422,0.44298494,-0.3464079,-0.15160143,0.8381237,9.769593,0.011158121,-0.042554896,-0.99576646,0.080707975,-0.02330017,1.2881622,9.493454,0.19847107,0.035110474,0.5734863
2022/12/8 19:49,17441,0.20766169,0.2210297,0.39470387,-0.14607601,0.9026306,9.763928,0.011219103,-0.045834884,-0.9948448,0.089761585,0.0826416,1.1403198,10.26918,0.10473633,-0.047973633,0.46269226
2022/12/8 19:49,17481,0.24710351,0.5161865,0.4477377,-0.09703547,0.95097905,9.75995,0.008922376,-0.048601523,-0.99431694,0.094298095,0.1401062,1.504837,10.314072,0.1260376,-0.099105835,0.24858093
2022/12/8 19:49,17522,0.05452853,0.87184083,0.4892969,-0.05005816,1.0163125,9.753717,0.007198282,-0.052491006,-0.9938152,0.097592615,0.04852295,1.91185,10.32843,0.19528198,-0.07247925,0.18678284
2022/12/8 19:49,17561,0.21193811,0.16509509,0.29104996,-0.04157987,1.0928046,9.745482,0.007882651,-0.055510957,-0.9936374,0.09767863,0.13951111,1.2504578,10.155441,0.06637573,0.14376831,0.016342163
2022/12/8 19:49,17601,-0.6048063,-0.259979,1.5030088,-0.105276726,1.0892729,9.745398,0.011825845,-0.053707797,-0.99366134,0.098044485,-0.821167,0.773407,11.533905,-0.25106812,0.19490051,0.21128845
2022/12/8 19:49,17642,-0.10829617,-1.4967067,2.9692392,-0.13751969,0.9363477,9.760877,0.011448241,-0.045908805,-0.9935726,0.102834016,-0.14300537,-0.6086426,12.952469,-0.2936859,-0.13319397,0.23898315
2022/12/8 19:49,17681,-0.061383866,-1.454016,1.3050413,-0.089976646,0.9022713,9.76464,0.009475407,-0.04617304,-0.99352044,0.10341882,-0.12684631,-0.58470154,11.337585,0.44348145,0.05429077,-0.040115356
2022/12/8 19:49,17722,-0.49554104,-0.7376019,-1.5368834,-0.1454719,1.1114831,9.742373,0.014324212,-0.05862466,-0.99290854,0.102423854,-0.6356201,0.3711853,8.451981,0.61499023,0.16081238,0.093048096
2022/12/8 19:49,17761,-0.16210277,-0.7750933,-2.4893274,-0.20608398,1.2799366,9.72058,0.018477356,-0.06429961,-0.9919598,0.1074238,-0.38482666,0.53637695,7.2985687,0.06851196,0.24177551,0.43711853
2022/12/8 19:49,17801,0.42771956,-1.6209972,-1.0394831,-0.26199764,1.2619478,9.721586,0.021184016,-0.06107671,-0.9907785,0.119074956,0.19577026,-0.3548584,8.815292,-0.27236938,0.17573547,0.78227234
2022/12/8 19:49,17842,1.4056687,-2.1839004,0.45509243,-0.25907072,1.1420848,9.736473,0.020212373,-0.05481378,-0.98941785,0.13281287,1.1761932,-1.0018921,10.336807,-0.18182373,0.0052948,0.6949158
2022/12/8 19:49,17881,1.1715232,-1.965947,0.50552654,-0.20324665,1.0873886,9.744058,0.01716624,-0.05365413,-0.98826534,0.14197958,0.9337921,-0.8151398,10.316452,0.0365448,-0.14491272,0.41474915
2022/12/8 19:49,17921,0.69854563,-1.1770722,-0.27410412,-0.11889135,1.080859,9.746178,0.013211615,-0.0536625,-0.9875092,0.14755115,0.5525055,-0.028656006,9.597,0.001403809,-0.12574768,0.3018341
2022/12/8 19:49,17962,0.36922157,-0.4790914,-0.30151844,-0.066465296,1.0934907,9.745269,0.011844803,-0.05490777,-0.98676354,0.15212677,0.24365234,0.694397,9.494049,0.08874512,0.028717041,0.32740784
2022/12/8 19:49,18001,0.6295548,-0.39188457,-0.6263962,-0.06378733,1.1066657,9.743799,0.012148652,-0.05519586,-0.98572284,0.1586073,0.5441284,0.7357025,9.235474,-0.03375244,0.043640137,0.38598633
2022/12/8 19:49,18041,0.5258167,-0.39729846,-0.6727381,-0.052383482,1.0934527,9.745358,0.011739804,-0.054573525,-0.984888,0.16394968,0.49145508,0.69200134,9.194183,-0.011383057,0.035110474,0.31143188
2022/12/8 19:49,18082,0.27155167,-0.34495974,-0.5872259,-0.06410847,1.06005,9.748979,0.01278327,-0.051466033,-0.98390806,0.17062467,0.21672058,0.7351074,9.318069,-0.24681091,0.17041016,0.46269226
2022/12/8 19:49,18121,0.5470033,-0.767249,1.1594372,-0.090261415,0.9774162,9.757402,0.012869039,-0.0484887,-0.9830988,0.17606798,0.46392822,0.2520752,11.004791,0.08555603,-0.0884552,0.24963379
2022/12/8 19:49,18161,0.3075567,0.32700205,-1.1424046,-0.04905459,1.0322596,9.752048,0.012108918,-0.051923465,-0.9822945,0.17959636,0.2664032,1.3851318,8.669846,0.016311646,0.121398926,0.38172913
2022/12/8 19:49,18202,0.939921,-0.051393628,0.21599579,-0.08496994,1.0066817,9.754474,0.014094862,-0.048470993,-0.9810087,0.18728003,0.96191406,0.87516785,10.250626,-0.21058655,0.13098145,0.42434692
2022/12/8 19:49,18241,0.70336574,-0.25941825,0.69528866,-0.1090933,0.94823337,9.760088,0.015111188,-0.046422403,-0.9802332,0.19172758,0.55430603,0.73928833,10.548096,0.039749146,0.100097656,0.20170593
2022/12/8 19:49,18281,0.3565375,0.15232247,-0.5110378,-0.13633527,0.9750809,9.757101,0.016666958,-0.04766067,-0.9796604,0.1942067,0.17002869,1.2390747,9.228287,0.070632935,0.06707764,0.17401123
2022/12/8 19:49,18322,-0.088633806,0.48695457,-0.8215914,-0.15822963,1.0029688,9.7539425,0.01810767,-0.048789106,-0.97906107,0.19680248,-0.26870728,1.5186005,9.030777,0.070632935,0.037246704,0.23686218
2022/12/8 19:49,18361,0.48564285,0.48692977,-0.92297554,-0.15872195,1.038936,9.75017,0.018725174,-0.0504839,-0.9781417,0.20084688,0.32565308,1.5401459,8.894302,0.04081726,0.11288452,0.30290222
2022/12/8 19:49,18402,0.88491577,0.46860862,3.75E-04,-0.21881798,1.0620153,9.746518,0.023466608,-0.051002063,-0.9770192,0.20562501,0.661438,1.5449371,9.786743,0.087677,0.32592773,0.30397034
2022/12/8 19:49,18441,0.83633715,0.4348817,0.5562706,-0.30417913,1.0975477,9.74029,0.02750233,-0.051720772,-0.97601146,0.20969091,0.5441284,1.5287781,10.356567,0.039749146,0.12246704,0.23365784
2022/12/8 19:49,18481,0.72194433,0.5231041,1.0405922,-0.33024177,1.1289616,9.735849,0.029450683,-0.05347063,-0.9753476,0.21206287,0.38072205,1.6538696,10.880295,0.17184448,0.16720581,0.13671875
2022/12/8 19:49,18522,-0.050634354,0.5870682,1.3385935,-0.39453536,1.2090148,9.723838,0.034063686,-0.056650165,-0.9746997,0.21352048,-0.508728,1.8400269,11.132278,0.12390137,0.21621704,0.14630127
2022/12/8 19:49,18561,0.073818654,0.4235382,1.5413647,-0.45220456,1.2180305,9.7202015,0.035946228,-0.054891296,-0.9742103,0.21589144,-0.3806305,1.6077881,11.412399,-0.1903534,0.023391724,0.16654968
2022/12/8 19:49,18602,0.2365832,0.21261203,1.3681097,-0.43164107,1.168166,9.727253,0.0334949,-0.053763613,-0.97382176,0.21830878,-0.13043213,1.3510132,11.014969,0.033355713,-0.22373962,0.1803894
2022/12/8 19:49,18641,1.0269898,0.08919191,-0.33175945,-0.3510187,1.1642915,9.730962,0.030672947,-0.05361605,-0.973324,0.22096364,0.7470398,1.2229156,9.541336,-0.19142151,0.14376831,0.25816345
2022/12/8 19:49,18681,0.53198886,-0.9440956,1.2199087,-0.39153036,1.082004,9.73891,0.031866584,-0.04898793,-0.9727199,0.22450101,0.13771057,0.058746338,11.1562195,-0.07637024,0.004226685,0.24324036
2022/12/8 19:49,18721,0.8033994,-1.5411173,0.08468819,-0.3351656,1.0874574,9.740405,0.028110774,-0.0518809,-0.9721173,0.22694969,0.4657135,-0.451828,10.03215,0.3252411,-0.2791443,0.18252563
2022/12/8 19:49,18762,0.44564578,-1.8437186,-1.506855,-0.24094371,1.2201624,9.727464,0.026673002,-0.05941784,-0.97151643,0.22784613,0.17123413,-0.62420654,8.356812,0.34761047,0.08517456,0.08345032
2022/12/8 19:49,18801,-0.77725834,-1.8929478,-0.6684923,-0.27937776,1.3018596,9.7158375,0.029350106,-0.061511956,-0.9710425,0.22897875,-1.0905151,-0.551178,9.193573,0.023773193,-0.005371094,0.12287903
2022/12/8 19:49,18841,-0.9770659,-1.5762216,-0.27674294,-0.25717008,1.2559046,9.722498,0.026796184,-0.057798725,-0.97060674,0.23208588,-1.2658844,-0.32733154,9.593414,-0.3469391,-0.10443115,0.21235657
2022/12/8 19:49,18882,-0.30498308,-1.1305629,0.75800323,-0.20732822,1.1070611,9.741756,0.02241103,-0.051199414,-0.9702589,0.23552929,-0.39379883,0.032409668,10.616333,-0.24467468,-0.16835022,0.16229248
2022/12/8 19:49,18921,0.2180641,-0.6732112,-0.021986008,-0.14386465,1.0518693,9.749013,0.019557346,-0.050827906,-0.9701002,0.2365154,0.114974976,0.46455383,9.67421,0.08555603,-0.03199768,0.07279968
2022/12/8 19:49,18962,0.7065481,-0.54315567,-0.4594984,-0.14946656,1.0777822,9.7460985,0.020769503,-0.051647738,-0.96985227,0.2372504,0.601593,0.5453644,9.43779,0.044006348,0.13737488,0.028060913
2022/12/8 19:49,19001,0.5546347,-0.7117865,0.07269764,-0.1814385,1.092817,9.743882,0.022259189,-0.052151233,-0.97037274,0.23486502,0.40885925,0.3939209,9.941772,0.0599823,0.019134521,-0.20202637
2022/12/8 19:49,19041,-0.16695565,-0.21653914,0.029484749,-0.18231216,1.0974003,9.74335,0.021785038,-0.052438006,-0.971496,0.23015472,-0.35668945,0.86138916,9.845993,0.012054443,-0.06289673,-0.15942383
2022/12/8 19:49,19081,-0.022233471,-0.2077409,-0.1269722,-0.16735964,1.1273156,9.740202,0.021471266,-0.055067796,-0.97221184,0.22651857,-0.23399353,0.96913147,9.583237,0.19528198,-0.052230835,-0.16900635
2022/12/8 19:49,19122,-0.22537701,0.065635085,-1.1223764,-0.15457192,1.1796324,9.734216,0.02082372,-0.057032958,-0.9727578,0.22373167,-0.35549927,1.2654114,8.730301,-0.010314941,-0.09484863,-0.07739258
2022/12/8 19:49,19161,0.1882646,0.017510056,-0.9150057,-0.11888006,1.1750786,9.735269,0.019160474,-0.05722991,-0.97326165,0.22162886,0.07606506,1.207962,8.894897,0.021636963,-0.030929565,-0.13812256
2022/12/8 19:49,19202,0.2553809,0.08752906,-0.8898001,-0.13152333,1.1933477,9.732883,0.0200764,-0.05827371,-0.9741302,0.21741983,0.12454224,1.286972,8.942184,0.049331665,0.008483887,-0.17007446
2022/12/8 19:49,19241,0.31206822,0.17238533,-0.9140301,-0.12969194,1.2049904,9.731473,0.019521728,-0.05873574,-0.9751011,0.212948,0.18260193,1.4192505,8.84343,-0.013519287,-0.033065796,-0.23506165
2022/12/8 19:49,19282,-0.021069795,0.5880921,-0.58386517,-0.1330243,1.1993296,9.732128,0.019560006,-0.05823116,-0.97619116,0.20803215,-0.19567871,1.7951355,9.276184,-0.06677246,0.001022339,-0.22120667
2022/12/8 19:49,19321,-0.24681993,0.7990066,0.16470718,-0.1406685,1.1727816,9.735255,0.019204337,-0.056779306,-0.9770458,0.20442331,-0.363266,1.9687195,10.048904,-0.09341431,-0.019210815,-0.16368103
2022/12/8 19:49,19362,-0.2008694,0.939883,0.9365635,-0.13963695,1.1441674,9.738674,0.018671153,-0.05572501,-0.9777168,0.20153405,-0.32496643,2.1345062,10.8910675,-0.051864624,-0.066085815,-0.15089417
2022/12/8 19:49,19401,-0.12370525,1.0740483,1.436533,-0.11892024,1.1449443,9.738857,0.017449558,-0.05626976,-0.9783739,0.19827707,-0.26690674,2.2410583,11.288498,0.037612915,-0.084198,-0.1487732
2022/12/8 19:49,19441,-8.32E-04,0.8857149,1.6263084,-0.08915135,1.179147,9.735094,0.01603885,-0.058945652,-0.9790771,0.19410345,-0.114868164,2.0950012,11.457291,0.13562012,-0.08312988,-0.20523071
2022/12/8 19:49,19482,0.084517136,0.47218227,1.3436842,-0.077244006,1.2425737,9.727303,0.016105045,-0.062270254,-0.97978264,0.1894439,0.03236389,1.7029572,11.152634,0.12815857,-0.008560181,-0.19670105
2022/12/8 19:49,19521,0.107364416,-1.0436885,1.7567987,-0.096426375,1.2550803,9.725526,0.017020578,-0.06113897,-0.9802197,0.18746096,0.02279663,0.16229248,11.608734,-0.15838623,0.06387329,-0.02519226
2022/12/8 19:49,19562,0.6269364,-2.317839,2.5261202,-0.093610935,1.1795657,9.735002,0.01515941,-0.058328357,-0.98099357,0.1844441,0.5315552,-1.1204071,12.3736725,0.09939575,-0.16835022,-0.26275635
2022/12/8 19:49,19601,0.10156849,-1.6411469,-0.25612736,-0.0400955,1.2649496,9.724643,0.013641159,-0.06598479,-0.98191947,0.17690141,0.076660156,-0.2788391,9.293533,0.6032715,-0.1076355,-0.36714172
2022/12/8 19:49,19641,-0.13777784,-0.9167267,-2.6628418,-0.059432816,1.4735898,9.695122,0.01767518,-0.07495306,-0.98217845,0.17145002,-0.2902527,0.5681,7.105835,0.21658325,0.32273865,-0.11468506
2022/12/8 19:49,19682,-0.5408623,-1.2599611,-0.8147116,-0.17841731,1.496608,9.690136,0.022684734,-0.07244453,-0.981937,0.17331155,-0.687088,0.16946411,9.2426605,-0.25532532,0.086242676,0.2464447
2022/12/8 19:49,19721,0.87581,-1.8502024,0.36438274,-0.18871231,1.3790855,9.707364,0.021891598,-0.06682777,-0.98141,0.17857529,0.6123657,-0.37461853,10.18837,-0.11364746,0.035110474,0.18891907
2022/12/8 19:49,19762,0.5581828,-1.4629784,-0.3624611,-0.18597478,1.3518829,9.711242,0.021787167,-0.0662429,-0.9813445,0.17916518,0.31608582,-0.075927734,9.445572,0.016311646,0.012741089,0.014221191
2022/12/8 19:49,19802,0.42277744,-0.8800491,-0.72290325,-0.1756441,1.3344246,9.713848,0.0206652,-0.065118715,-0.98131126,0.17989084,0.26939392,0.45498657,9.086441,-0.067840576,-0.054367065,0.055755615
2022/12/8 19:49,19841,0.6764075,-0.86900544,-1.191659,-0.14871053,1.3068063,9.718053,0.019413253,-0.06388185,-0.9813717,0.18014388,0.5201874,0.44360352,8.644104,-0.07637024,0.018066406,0.030197144
2022/12/8 19:49,19882,0.93946725,-0.82307005,-0.7197647,-0.16045736,1.2450536,9.725968,0.019583015,-0.05982955,-0.98149025,0.18086948,0.78115845,0.42445374,9.113373,-0.23295593,0.06707764,0.012084961
2022/12/8 19:49,19921,0.6724185,-0.5360317,-0.24715137,-0.1717328,1.1423925,9.738369,0.01899172,-0.054262888,-0.9820284,0.17976391,0.42681885,0.69021606,9.643692,-0.30966187,0.024459839,-0.084854126
2022/12/8 19:49,19962,0.16841733,-0.09630346,0.20579243,-0.18621942,1.0107931,9.752642,0.018593531,-0.04848444,-0.9826045,0.17830293,-0.069381714,0.96495056,10.023773,-0.2223053,0.053222656,-0.06462097
2022/12/8 19:49,20001,-0.07611705,0.23490524,-0.012983322,-0.20725383,0.9516902,9.758162,0.019294517,-0.045339625,-0.98284286,0.17774113,-0.26332092,1.1774292,9.810684,-0.10513306,0.06387329,-0.017745972
2022/12/8 19:49,20042,-0.14578825,0.5081127,-0.3985033,-0.2432818,0.9077669,9.761514,0.02073605,-0.043005474,-0.98274267,0.17871042,-0.38841248,1.4222412,9.41864,-0.14666748,0.12565613,0.09837341
2022/12/8 19:49,20081,0.21434322,0.278607,-0.06440067,-0.27812526,0.8612865,9.764795,0.022001402,-0.040497087,-0.98229474,0.18158463,-0.02809143,1.1008148,9.698151,-0.048675537,0.053222656,0.13885498
2022/12/8 19:49,20122,0.51516753,0.30895865,-0.8623524,-0.3060113,0.86286265,9.763822,0.02420179,-0.040514726,-0.98169976,0.18449503,0.20295715,1.2241211,8.970322,0.033355713,0.1586914,0.11755371
2022/12/8 19:49,20161,0.4701027,0.79921615,-0.89165974,-0.3510308,0.86215943,9.762369,0.02627173,-0.038982715,-0.98106015,0.18791269,0.11616516,1.693985,8.993057,-0.21058655,0.15122986,0.21128845
2022/12/8 19:49,20202,0.578707,0.84633005,1.035511,-0.3999529,0.7949444,9.766191,0.028306497,-0.035287004,-0.9800947,0.19330801,0.19517517,1.6293335,10.935959,-0.10832214,0.13632202,0.30503845
2022/12/8 19:49,20241,0.836385,0.9284362,1.1230841,-0.40656972,0.7768943,9.76737,0.027570166,-0.034805633,-0.9789238,0.19934048,0.44476318,1.7245026,10.939545,-0.03907776,-0.1118927,0.28692627
2022/12/8 19:49,20281,0.95416284,0.7030004,0.93900394,-0.3493738,0.78389305,9.769025,0.025388746,-0.036143646,-0.9779778,0.20398147,0.5914154,1.4952545,10.802475,0.12922668,0.012741089,0.18785095
2022/12/8 19:49,20321,0.8609332,0.71480525,0.84139156,-0.35214195,0.8600481,9.762515,0.027323239,-0.040641155,-0.9773836,0.20572557,0.4794922,1.6820068,10.636688,0.2836914,0.10328674,0.017410278
2022/12/8 19:49,20362,-0.04488215,1.2430923,0.6607294,-0.38912535,0.9598299,9.751804,0.029812705,-0.043809596,-0.97692364,0.20691097,-0.5069275,2.2697906,10.528351,-0.040145874,0.097961426,0.13352966
2022/12/8 19:49,20401,0.493937,0.506084,2.6724691,-0.4072386,0.930505,9.753907,0.03028464,-0.042014208,-0.9758169,0.21236542,0.025787354,1.4701233,12.506561,-0.036956787,0.001022339,0.3252716
2022/12/8 19:49,20442,1.163242,-0.18429124,1.2660532,-0.36196274,1.0192511,9.7468195,0.029424708,-0.04910165,-0.9745258,0.216847,0.8170624,0.860199,11.210098,0.47224426,-0.030929565,0.17506409
2022/12/8 19:49,20481,0.4611728,-1.479339,0.25447655,-0.35833487,1.1781633,9.729024,0.031369362,-0.05518457,-0.97321653,0.22095285,0.09222412,-0.23036194,10.122528,0.19953918,0.051086426,0.34017944
2022/12/8 19:49,20521,0.03148678,-2.8796382,0.95645237,-0.33146948,1.2083738,9.726271,0.029882547,-0.056451924,-0.97197104,0.22625756,-0.3117981,-1.6555023,10.820435,0.09088135,-0.2684784,0.20489502
2022/12/8 19:49,20562,-0.55548936,-2.3313813,-0.85144997,-0.18707375,1.2388195,9.726291,0.021659166,-0.060534116,-0.9717069,0.2272712,-0.73857117,-0.9953003,8.829666,0.14520264,-0.44638062,0.001434326
2022/12/8 19:49,20602,-0.42303735,-1.8643389,-1.439846,-0.06475048,1.25962,9.725202,0.017609447,-0.06195721,-0.9718199,0.22675401,-0.45664978,-0.59487915,8.437012,0.044006348,-0.03199768,-0.045440674
2022/12/8 19:49,20641,-0.034177557,-1.579126,-1.074583,-0.08266275,1.2726423,9.723371,0.01957973,-0.06267027,-0.97242427,0.22378589,-0.114868164,-0.28182983,8.763214,0.117507935,0.13737488,-0.22546387
2022/12/8 19:49,20681,-1.0263175,-0.93846095,-0.61721325,-0.15170704,1.2805115,9.721505,0.022191571,-0.061668806,-0.9729939,0.22133078,-1.1665344,0.36698914,9.175629,-0.14987183,0.032989502,-0.015609741
2022/12/8 19:49,20722,-0.37398314,-1.1722744,0.10493946,-0.14059758,1.2071706,9.731051,0.020400511,-0.058218766,-0.97320664,0.22150213,-0.49316406,0.070114136,9.953735,-0.12857056,-0.099105835,-0.014541626
2022/12/8 19:49,20762,-0.30757934,-0.69474137,-0.30162334,-0.11787713,1.1766993,9.735085,0.018959956,-0.057281308,-0.97341084,0.2209768,-0.42492676,0.50704956,9.520386,-0.006057739,-0.10549927,-0.016677856
2022/12/8 19:49,20801,0.0655565,-0.42368412,-0.9046192,-0.07612349,1.1586672,9.737663,0.016366774,-0.056201175,-0.97346866,0.22120646,-0.017913818,0.7554474,8.935608,-0.15306091,-0.07141113,3.66E-04
2022/12/8 19:49,20841,-0.042344242,-0.41067815,0.012586594,-0.062372714,1.0678408,9.748138,0.01478448,-0.05098057,-0.97393656,0.22052217,-0.10470581,0.6686554,9.87294,-0.29901123,-0.012817383,-0.09017944
2022/12/8 19:49,20882,-0.01690279,-0.2929116,0.7331991,-0.060260218,0.9773557,9.75764,0.013889791,-0.047932863,-0.9745184,0.21868552,-0.08375549,0.6884155,10.587006,0.02696228,-0.014953613,-0.12426758
2022/12/8 19:49,20921,0.25551406,-0.14547169,-0.62688446,-0.05914461,1.0065061,9.754683,0.014164673,-0.050058242,-0.9750609,0.21575408,0.19937134,0.8703766,9.178009,0.10473633,-0.0181427,-0.21907043
2022/12/8 19:49,20961,-2.64E-05,0.17684734,-0.76666737,-0.06043006,1.036967,9.751484,0.014192656,-0.051362894,-0.9759678,0.21129887,-0.07118225,1.2720032,9.052322,0.035491943,-0.049041748,-0.24250793
2022/12/8 19:49,21002,-0.4193693,0.4585545,-0.83293533,-0.05716705,1.0457963,9.75056,0.01402684,-0.051428568,-0.9767449,0.20767234,-0.5601959,1.5461426,9.066086,-0.05079651,-0.014953613,-0.16261292
2022/12/8 19:49,21041,-0.44042945,0.59401596,-0.24880409,-0.05410949,1.0432847,9.750847,0.013402916,-0.052498404,-0.977313,0.20475252,-0.52308655,1.6520844,9.5946045,0.119644165,-0.08312988,-0.17965698
2022/12/8 19:49,21082,-0.18813767,0.95337474,-1.3164711,-0.040167198,1.1058911,9.744012,0.013790087,-0.05562016,-0.9776665,0.20219913,-0.2501526,2.1309204,8.470535,0.08555603,0.04043579,-0.13066101
2022/12/8 19:49,21121,-0.18838412,0.66105413,-0.085843086,-0.07209296,1.1089374,9.743482,0.01508443,-0.05366486,-0.9777938,0.2020194,-0.27947998,1.8065033,9.667038,-0.22976685,0.03404236,-0.014541626
2022/12/8 19:49,21161,0.04800965,0.41678143,1.3021059,-0.07078853,1.0333815,9.751795,0.013882658,-0.05054788,-0.9781292,0.20128453,-0.047836304,1.4306183,11.028137,-0.067840576,-0.058624268,-0.13705444
2022/12/8 19:49,21202,-0.20516261,1.0002348,0.73820305,-0.04609789,1.0423197,9.750992,0.012437594,-0.05250463,-0.9786582,0.19828452,-0.311203,2.133316,10.451736,0.1111145,-0.1438446,-0.15621948
2022/12/8 19:49,21242,0.042642713,1.1364251,0.567996,0.001094488,1.0750091,9.747551,0.00998917,-0.053896032,-0.9789762,0.19647151,0.062301636,2.239853,10.44754,-0.047607422,-0.1715393,-0.11468506
2022/12/8 19:49,21281,0.33384645,1.038393,1.6214857,0.07294826,1.0829101,9.746403,0.006908079,-0.055295,-0.9797852,0.19213465,0.356781,2.1273346,11.462082,0.11643982,-0.07673645,-0.3021698
2022/12/8 19:49,21322,-0.10646788,0.5308894,1.9373646,0.083348885,1.1365552,9.74021,0.006652921,-0.05833284,-0.98046404,0.18773209,-0.012527466,1.6101837,11.711685,0.20272827,-0.1161499,-0.2361145
2022/12/8 19:49,21361,0.25997242,-0.75116324,0.8015213,0.10554298,1.2021645,9.732115,0.006272882,-0.061225973,-0.9809295,0.18436201,0.35020447,0.30952454,10.5516815,-0.04121399,0.119277954,-0.13279724
2022/12/8 19:49,21402,-0.21097814,-1.8015372,2.0218992,0.045356188,1.152004,9.738645,0.008743321,-0.058112007,-0.98150235,0.18220772,-0.18011475,-0.65293884,11.971451,0.06851196,0.07133484,-0.15942383
2022/12/8 19:49,21441,-0.24921319,-1.6607023,-0.7748842,0.02502051,1.247991,9.726884,0.010512685,-0.06415014,-0.9817759,0.1785789,-0.18191528,-0.5224457,9.762207,0.5393524,0.020202637,-0.18392944
2022/12/8 19:49,21482,-0.10237124,-1.2725781,-2.3638449,-0.030645784,1.3724002,9.710095,0.014458188,-0.0685464,-0.98156893,0.1778055,-0.14060974,0.113204956,7.5242157,-0.08381653,0.15974426,0.060028076
2022/12/8 19:49,21522,0.090094045,-1.5436276,-0.27911568,-0.052601367,1.2835963,9.722139,0.014247257,-0.06332324,-0.9814838,0.18021283,0.07067871,-0.25909424,9.568268,-0.24360657,-0.022415161,0.1803894
2022/12/8 19:49,21561,0.6894271,-1.4776857,-0.073272705,-0.03890134,1.2095242,9.731697,0.013524046,-0.060158864,-0.9809645,0.1841378,0.6500702,-0.25489807,9.783157,0.020568848,0.100097656,0.16334534
2022/12/8 19:49,21601,0.45408356,-1.4721134,-0.4518528,-0.06987327,1.214605,9.730891,0.015492084,-0.06033466,-0.98053306,0.18621115,0.35559082,-0.22198486,9.353989,0.05253601,0.09689331,0.08451843
2022/12/8 19:49,21641,-0.21965003,-0.8759959,-0.5379982,-0.07608351,1.2047892,9.732065,0.014714218,-0.059362814,-0.98032016,0.18770166,-0.33454895,0.41906738,9.257629,-0.09234619,-0.131073,0.10688782
2022/12/8 19:49,21681,0.17243299,-0.41840255,-0.8156185,-0.028447397,1.1583368,9.737958,0.012224569,-0.057033688,-0.9798572,0.19099094,0.16165161,0.7614441,9.020599,-0.17863464,-0.028808594,0.21768188
2022/12/8 19:49,21722,0.9906529,-0.6547307,-0.15566349,-0.01216286,1.0702486,9.748067,0.011188444,-0.052909903,-0.97926897,0.19521186,0.95832825,0.43522644,9.664032,-0.21911621,0.041503906,0.16548157
2022/12/8 19:49,21761,0.796452,-0.37958658,0.12400341,-0.006013342,0.98191696,9.757366,0.00964712,-0.048298806,-0.979111,0.19727086,0.767395,0.62316895,9.979477,-0.16371155,-0.057556152,0.06321716
2022/12/8 19:49,21801,0.645099,0.05567473,-0.7852659,0.026588976,0.93431383,9.762005,0.007995745,-0.046882443,-0.97907674,0.19785559,0.6811981,0.97572327,9.078064,-0.07316589,-4.58E-05,0.02166748
2022/12/8 19:49,21842,0.35902438,0.4011171,-1.0463877,0.02183401,0.893609,9.765827,0.008161803,-0.043694396,-0.9788872,0.19950949,0.3681488,1.3198853,8.835648,-0.25639343,0.097961426,0.09516907
2022/12/8 19:49,21881,0.35391945,0.28162283,0.20410538,-0.01586568,0.7846558,9.775196,0.00892839,-0.03757691,-0.97855246,0.20234448,0.34002686,1.0708923,9.886108,-0.28729248,0.074523926,0.13671875
2022/12/8 19:49,21922,0.29833728,0.35003966,0.67502594,-0.023657124,0.6940442,9.782032,0.00824538,-0.03393729,-0.97816247,0.20488657,0.2664032,1.0702972,10.533737,-0.08381653,-0.004302979,0.079193115
2022/12/8 19:49,21961,0.41453958,0.8540502,-0.5580883,-0.020177897,0.70870364,9.780988,0.009050414,-0.03627578,-0.9778895,0.20575316,0.41963196,1.6035919,9.244461,0.2325592,0.109680176,-0.011352539
2022/12/8 19:49,22001,0.6489528,1.0740695,-1.8240814,-0.08894008,0.7964123,9.773853,0.014383476,-0.038593322,-0.9779503,0.20473614,0.56088257,1.8849182,8.020416,-0.12110901,0.35150146,-0.08378601
2022/12/8 19:49,22042,-0.58084536,1.3268528,0.4870262,-0.2370641,0.69424516,9.779172,0.01923335,-0.031049917,-0.9777515,0.20656243,-0.8636627,2.0525055,10.756989,-0.45240784,0.05961609,0.24324036
2022/12/8 19:49,22081,1.0918823,0.52464324,2.090125,-0.21204743,0.5979999,9.786103,0.016199676,-0.027733892,-0.976734,0.2120357,1.0415192,1.085846,11.873886,0.06958008,-0.1076355,0.1207428
2022/12/8 19:49,22121,0.44560897,1.1219485,1.2340183,-0.1525498,0.6689633,9.782617,0.014621032,-0.03247993,-0.9768514,0.2109327,0.443573,1.7328796,11.131683,0.2645111,-0.14704895,-0.1253357
2022/12/8 19:49,22162,0.46698165,1.1768402,0.5160446,-0.13032365,0.78954846,9.773946,0.016271362,-0.039113063,-0.976804,0.20990309,0.34062195,1.9806824,10.440353,0.22723389,0.25456238,0.020614624
2022/12/8 19:49,22201,0.11901216,0.78369635,1.2297897,-0.21724883,0.84435844,9.767817,0.020175774,-0.039278343,-0.9758869,0.21376367,-0.043640137,1.6197662,11.17778,-0.10725403,0.044708252,0.29438782
2022/12/8 19:49,22242,0.43654382,0.16984719,1.9394045,-0.20267309,0.8209664,9.770124,0.01915546,-0.038828764,-0.9750062,0.21791795,0.17063904,0.9996643,11.765549,0.042938232,0.009552002,0.17401123
2022/12/8 19:49,22281,-0.039037913,-0.51279056,1.1993704,-0.1899552,0.836229,9.769085,0.018309927,-0.03953834,-0.9738856,0.22281899,-0.26391602,0.44960022,11.141266,0.00352478,-0.12361145,0.31887817
2022/12/8 19:49,22321,0.3066615,-1.9224303,0.7701912,-0.12267892,0.8426214,9.769613,0.014971145,-0.041572094,-0.97252476,0.22856773,0.31907654,-1.0737152,10.5989685,0.29966736,-0.22373962,0.2230072
2022/12/8 19:49,22362,-0.07694524,-2.0575156,-1.2635336,-0.03586677,0.96835464,9.758657,0.013153966,-0.050086156,-0.97173905,0.23030765,-0.15318298,-1.0318146,8.440002,0.5063324,-0.07034302,0.067474365
2022/12/8 19:49,22401,-0.35052684,-1.5594023,-2.299078,-0.02637371,1.1231548,9.7420845,0.01480356,-0.055636317,-0.9708862,0.23251978,-0.33514404,-0.47277832,7.63974,0.09727478,0.04789734,0.18572998
2022/12/8 19:49,22442,-0.2846004,-1.7201624,-0.9152756,-0.020317215,1.0674686,9.748358,0.013545251,-0.05189158,-0.97026867,0.23601384,-0.35609436,-0.5499878,9.154068,-0.33096313,-0.049041748,0.19424438
2022/12/8 19:49,22481,0.095057584,-1.4197633,0.87807083,0.008737844,0.9372849,9.761752,0.010476064,-0.045872077,-0.96991813,0.23884049,0.05810547,-0.48355103,10.771362,-0.112579346,-0.056503296,0.05682373
2022/12/8 19:49,22521,-0.24846303,-0.7553631,0.10882282,0.015788136,0.9364952,9.76182,0.010827134,-0.047015235,-0.9703016,0.23703822,-0.21722412,0.16946411,10.043518,0.19207764,0.04257202,-0.15942383
2022/12/8 19:49,22562,-0.38991478,-0.37500048,-0.844121,-0.020403061,0.9992271,9.755589,0.01334922,-0.04957544,-0.9706684,0.2348765,-0.41773987,0.63394165,9.012817,0.05253601,0.027664185,-0.051834106
2022/12/8 19:49,22601,-0.043107986,-0.4589219,-0.4428501,-0.020076571,1.000419,9.755467,0.012845689,-0.04924167,-0.9708798,0.23409972,-0.03286743,0.52381897,9.444366,-0.01991272,-0.003234863,-0.037979126
2022/12/8 19:49,22642,0.19887553,-0.77897894,-0.028903008,-0.031489693,1.0036832,9.755102,0.01397582,-0.049724,-0.97113323,0.23287868,0.12335205,0.25805664,9.819656,0.096206665,0.07133484,-0.09336853
2022/12/8 19:49,22681,0.1956357,-0.62038195,-0.3064022,-0.0525942,1.0197085,9.753348,0.014346707,-0.049785897,-0.9716102,0.23084441,0.16046143,0.47114563,9.544327,-0.077438354,-0.089523315,-0.12319946
2022/12/8 19:49,22721,0.33869764,-0.4308645,-0.08941841,-0.010016174,0.9838634,9.757167,0.011726971,-0.048785795,-0.97255135,0.22721417,0.30291748,0.6177826,9.692764,0.004592896,-0.079940796,-0.24464417
2022/12/8 19:49,22762,-0.101806596,0.056424975,-0.75106907,-0.003606234,0.9881462,9.756739,0.011392214,-0.04905872,-0.97362906,0.2225083,-0.093322754,1.0373688,9.115173,-0.060394287,-0.040512085,-0.22441101
2022/12/8 19:49,22801,-0.06781098,0.3061905,-0.5393057,0.022780184,0.94167143,9.761307,0.009024262,-0.04679593,-0.97470754,0.21834354,-0.046035767,1.2534485,9.28157,-0.17970276,-0.11828613,-0.2510376
2022/12/8 19:49,22842,-0.3357639,0.5516488,-0.35866928,0.03595468,0.9020485,9.765009,0.008087486,-0.04528365,-0.9760963,0.21241474,-0.3842163,1.4904785,9.400085,-0.03163147,-0.014953613,-0.30323792
2022/12/8 19:49,22881,-0.7474744,0.95748055,-1.053052,0.054277327,0.874023,9.767473,0.005461813,-0.0433271,-0.9771397,0.20806457,-0.6978607,1.8142853,8.791946,-0.27450562,-0.23439026,-0.18605042
2022/12/8 19:49,22922,-0.040989205,0.81117874,-0.4933777,0.13111176,0.7732897,9.775235,6.63E-04,-0.03898639,-0.97793305,0.20524755,0.10719299,1.5886383,9.349197,-0.24787903,-0.12893677,-0.16049194
2022/12/8 19:49,22961,-0.19068375,0.86025375,-0.041095734,0.15853143,0.6913991,9.780962,-0.00124582,-0.035065826,-0.978604,0.20273873,-0.04185486,1.5485382,9.821457,-0.29901123,-0.084198,-0.08592224
2022/12/8 19:49,23001,0.066994,0.8139791,0.8146219,0.2036376,0.5700477,9.78795,-0.005703507,-0.02895809,-0.97896653,0.20187466,0.2885437,1.3935089,10.672592,-0.38423157,-0.1949768,-0.08378601
2022/12/8 19:49,23041,0.17255217,0.85026896,1.5974388,0.2681304,0.45969948,9.792198,-0.009268536,-0.02569391,-0.9797554,0.19832622,0.38131714,1.3558044,11.407623,0.02696228,-0.11935425,-0.27020264
2022/12/8 19:49,23081,-0.013239205,1.3125957,0.17074108,0.29895365,0.4984826,9.789409,-0.009870953,-0.028438352,-0.9806314,0.19353507,0.25802612,1.7885437,10.014191,0.035491943,0.031921387,-0.20948792
2022/12/8 19:49,23122,0.12984154,0.55566925,1.2818518,0.287742,0.50081354,9.789626,-0.00966353,-0.027663223,-0.9813581,0.18994102,0.4369812,1.0792694,11.146652,-0.110458374,-0.046905518,-0.19244385
2022/12/8 19:49,23161,0.04226333,-0.60888344,1.48528,0.30641043,0.45987862,9.791068,-0.011098192,-0.025003606,-0.9820891,0.18642049,0.34899902,-0.09269714,11.423782,-0.14987183,-0.009628296,-0.12747192
2022/12/8 19:49,23201,-0.2612444,-1.6875408,2.0863266,0.2985563,0.34636775,9.795982,-0.01259174,-0.018452918,-0.98255354,0.1846335,0.018600464,-1.3544312,12.034897,-0.3245697,-0.16409302,-0.12319946
2022/12/8 19:49,23242,-0.45912197,-1.6208777,1.4307661,0.37117073,0.24295127,9.796612,-0.016907925,-0.016157376,-0.9834122,0.1798709,-0.10708618,-1.3424683,11.320221,0.039749146,-0.18006897,-0.30749512
2022/12/8 19:49,23281,-0.53897595,-0.8789257,-1.4196262,0.34641215,0.38326442,9.793033,-0.011712171,-0.024878211,-0.9843111,0.174286,-0.18070984,-0.47576904,8.429825,0.5840912,0.37919617,-0.22653198
2022/12/8 19:49,23322,-0.51900107,-0.88470125,-2.010396,0.178839,0.54222596,9.790014,-0.002519585,-0.028552065,-0.9842735,0.17431054,-0.31777954,-0.34707642,7.9767303,-0.058258057,0.2609558,0.17826843
2022/12/8 19:49,23361,0.6481478,-1.6942399,-0.5105896,0.11901981,0.48308736,9.794022,-0.001816124,-0.024012337,-0.98363465,0.17855817,0.8847046,-1.2251587,9.510803,-0.22337341,0.03404236,0.24005127
2022/12/8 19:49,23402,0.66997766,-1.5446557,0.17573357,0.09982648,0.3974236,9.798085,-0.001060619,-0.020074293,-0.98327315,0.18102434,0.71351624,-1.0761108,10.136887,-0.10406494,0.084121704,0.09944153
2022/12/8 19:49,23441,0.32759506,-1.0326426,0.2871771,0.08445095,0.3450468,9.800214,-0.001104888,-0.01770392,-0.9831241,0.18207806,0.39808655,-0.59906006,10.239838,-0.022033691,0.010620117,0.041915894
2022/12/8 19:49,23482,0.023354575,-0.500277,-0.21995258,0.077462934,0.35038003,9.800082,-4.83E-04,-0.018500915,-0.9829543,0.18291591,0.10359192,-0.15673828,9.568268,0.1026001,0.04257202,0.062149048
2022/12/8 19:49,23521,-0.045651548,-0.16017044,-0.8693247,0.05879919,0.3795481,9.799126,7.95E-04,-0.019651012,-0.9825195,0.1851179,0.003036499,0.19161987,9.056503,0.020568848,0.031921387,0.14311218
2022/12/8 19:49,23562,0.15470496,-0.27481624,-1.056181,0.03947552,0.36399654,9.799812,0.002011476,-0.017791362,-0.98192364,0.18842863,0.18798828,0.089263916,8.80452,-0.12536621,0.12672424,0.18145752
2022/12/8 19:49,23601,0.43807524,-0.27381536,0.096367836,-0.012039389,0.30237907,9.80198,0.003784009,-0.014274716,-0.9813456,0.19168396,0.4220276,0.04975891,10.011795,-0.122177124,0.08198547,0.16334534
2022/12/8 19:49,23641,0.7060189,-0.30302018,0.075455666,-0.037904814,0.26368865,9.803032,0.004904778,-0.012450768,-0.98100734,0.19350834,0.64707947,-0.023254395,9.977676,-0.051864624,0.11607361,0.081329346
2022/12/8 19:49,23682,0.17551953,-0.074580655,0.24015999,-0.07861422,0.24459219,9.803284,0.006730139,-0.011145379,-0.9806293,0.19543941,0.06947327,0.1724701,10.156647,-0.04121399,0.07133484,0.1441803
2022/12/8 19:49,23721,0.22447592,-0.07251176,0.30100155,-0.08498115,0.23948485,9.803357,0.006374902,-0.01168981,-0.98018366,0.19764282,0.14788818,0.16946411,10.229675,0.119644165,-0.08312988,0.078125
2022/12/8 19:49,23762,-0.21762472,0.5095713,-1.009531,-0.06508666,0.29414216,9.802022,0.006634581,-0.014606928,-0.9797646,0.19950935,-0.2824707,0.8488312,8.9110565,0.086624146,0.07772827,0.16122437
2022/12/8 19:49,23801,0.6076552,0.6474064,-0.5535307,-0.101452105,0.33372968,9.800446,0.008764227,-0.01575038,-0.9789124,0.20348354,0.62493896,0.89671326,9.392899,0.058929443,0.11288452,0.2144928
2022/12/8 19:49,23841,0.572922,0.5995711,-0.40766335,-0.11460546,0.35218987,9.799653,0.009114687,-0.016226662,-0.9781344,0.2071393,0.43878174,0.98768616,9.489853,-0.07209778,-0.05117798,0.18678284
2022/12/8 19:49,23882,0.6306184,0.54490256,-0.08229923,-0.08043104,0.3275264,9.800849,0.00715355,-0.01522716,-0.97744,0.21054211,0.54711914,0.8655853,9.779556,-0.07209778,-0.03413391,0.18252563
2022/12/8 19:49,23922,0.28451198,0.6366713,0.25246716,-0.07344232,0.30505693,9.801629,0.006893273,-0.014047566,-0.97682047,0.21348763,0.19158936,0.9517822,10.143478,-0.098739624,-4.58E-05,0.15696716
2022/12/8 19:49,23961,0.17311016,1.1382954,0.4863062,-0.06592811,0.2755232,9.802557,0.006326356,-0.012790359,-0.9762877,0.21600606,0.10838318,1.418045,10.394867,-0.06890869,0.023391724,0.12713623
2022/12/8 19:49,24001,0.19541442,1.5322385,0.81942844,-0.09093127,0.28292242,9.802146,0.008407312,-0.013362695,-0.97559017,0.21903105,0.17063904,1.8184814,10.6857605,0.058929443,0.15016174,0.17933655
2022/12/8 19:49,24042,0.4788544,1.2832271,1.1389675,-0.13706957,0.32319,9.8003645,0.011076653,-0.014829813,-0.97476333,0.22247213,0.23587036,1.5353699,11.052673,0.049331665,0.12672424,0.19638062
2022/12/8 19:49,24082,0.47112864,0.65593284,1.7668581,-0.16912495,0.35528427,9.798753,0.012690556,-0.016359076,-0.97388977,0.22607528,0.19636536,1.0924377,11.628479,0.14414978,0.013809204,0.19850159
