Timestamp,Milliseconds,linear-x,linear-y,linear-z,gravity-x,gravity-y,gravity-z,rotation-x,rotation-y,rotation-z,rotation-w,acc-x,acc-y,acc-z,gyr-x,gyr-y,gyr-z
2023/5/9 21:32,14,0.32213154,0.05404967,0.23294735,-0.1055091,0.6108619,9.787037,0.031521305,0.002524867,-0.09093305,0.99535483,0.1981659,0.62316895,10.118332,-0.12382507,-0.11112976,-0.113464355
2023/5/9 21:32,45,0.3024542,0.069574594,0.08006573,0.09552699,0.6981184,9.781303,0.034916528,-0.00855396,-0.10400491,0.9939269,0.37832642,0.7746124,9.758606,-0.10997009,0.1051178,-0.013336182
2023/5/9 21:32,85,0.1469775,0.24899465,0.20235538,-0.025520887,0.60538805,9.787913,0.030101491,-8.01E-04,-0.10977581,0.9935001,0.28675842,0.87934875,10.13031,-0.35923767,0.49073792,-0.09109497
2023/5/9 21:32,126,0.46201587,0.4075069,0.6473408,-0.15221828,0.49249822,9.793093,0.025687478,0.005086787,-0.113616355,0.99317956,0.27119446,0.94400024,10.36554,-0.05883789,0.08807373,-0.09428406
2023/5/9 21:32,165,-0.22931327,0.03276092,-0.6598549,-0.16732591,0.53614014,9.790554,0.02852037,0.005115573,-0.11859251,0.99252015,-0.04244995,0.5687103,9.702347,0.195755,-0.016326904,-0.16352844
2023/5/9 21:32,206,-0.96456015,-0.1916712,-0.028273582,-0.119363725,0.5237162,9.791928,0.027252367,0.002812726,-0.12090056,0.9922865,-1.0713654,0.4124756,9.584427,-0.12915039,-0.18144226,0.013305664
2023/5/9 21:32,246,-0.13215351,-0.056617796,0.48420143,-0.094807744,0.48623472,9.794129,0.025025642,0.002000508,-0.11906114,0.99256945,-0.38542175,0.3209076,10.418808,-0.081207275,0.07954407,0.08680725
2023/5/9 21:32,285,0.6197931,0.31709382,1.0358944,-0.13304551,0.4800603,9.793989,0.025118044,0.00382139,-0.11905643,0.99256235,0.46331787,0.7907715,10.917404,0.14782715,0.08061218,-0.11985779
2023/5/9 21:32,325,-0.63073874,-0.24207383,-0.31966782,-0.15371533,0.5836812,9.788058,0.03132567,0.004258859,-0.12012656,0.9922551,-0.78764343,0.30593872,9.620346,0.3076172,0.045455933,0.06762695
2023/5/9 21:32,366,-0.12992513,0.1352337,-0.78149223,-0.14863293,0.65992594,9.783291,0.034330543,0.003517394,-0.1190751,0.9922853,-0.37823486,0.82728577,9.064285,0.024261475,-0.112197876,0.032470703
2023/5/9 21:32,405,0.15689544,0.013560951,-0.5312996,-0.078437805,0.65851635,9.784202,0.033831675,-3.83E-05,-0.11933255,0.99227774,0.090423584,0.70996094,9.195374,-0.06097412,-0.20487976,-0.038894653
2023/5/9 21:32,446,-0.19213821,-0.19216728,0.82424736,-0.03499123,0.62641007,9.786561,0.031844173,-0.001928068,-0.12086455,0.9921562,-0.1166687,0.5166321,10.567856,-0.03326416,0.059310913,-0.06340027
2023/5/9 21:32,485,-0.6303178,-0.2062574,-0.08562279,-0.09460364,0.6149248,9.786895,0.03165057,0.00134812,-0.12003458,0.99226415,-0.7924347,0.34005737,9.810684,-0.04498291,0.11790466,0.16349792
2023/5/9 21:32,525,0.500903,0.38648558,0.10779762,-0.10405036,0.6081723,9.787221,0.03155668,0.001407282,-0.11716808,0.9926096,0.35020447,1.0277863,9.965103,0.05407715,-0.07064819,0.06655884
2023/5/9 21:32,566,0.3323984,0.14739376,-0.34122086,-0.060411926,0.63703847,9.785751,0.032639228,-9.78E-04,-0.1182577,0.9924459,0.38371277,0.8302765,9.529358,0.001876831,-0.07171631,-0.10281372
2023/5/9 21:32,606,-0.2048195,-0.2561366,0.1716423,-0.0729739,0.6053267,9.787678,0.031101575,-1.03E-05,-0.11995632,0.99229187,-0.3106079,0.3610077,9.954941,-0.07695007,0.065704346,-0.018661499
2023/5/9 21:32,645,-0.08840413,-0.01473403,-0.264019,-0.077472545,0.60976326,9.787369,0.031354018,1.93E-04,-0.11986279,0.9922952,-0.21482849,0.5561371,9.617355,0.018920898,-0.049346924,0.010101318
2023/5/9 21:32,685,-0.23870704,-0.092330694,0.08975506,-0.052027524,0.59507453,9.788441,0.030453628,-0.001006188,-0.1198913,0.99231935,-0.24176025,0.5764923,9.83403,-0.062026978,-0.08236694,0.027145386
2023/5/9 21:32,725,0.37097102,0.20288074,0.4738512,-0.04434561,0.5756994,9.789637,0.029425,-0.001266157,-0.11954192,0.9923922,0.36935425,0.78897095,10.381699,-0.016220093,0.04866028,-0.035705566
2023/5/9 21:32,765,-0.29570416,0.005960584,-0.38240337,-0.051576618,0.5902469,9.788734,0.03032747,-0.001152081,-0.119933285,0.992318,-0.3985901,0.6207733,9.630524,0.057281494,-0.05680847,0.025024414
2023/5/9 21:32,805,0.014907051,0.0725407,-0.08478737,-0.028991705,0.585239,9.789128,0.029621717,-0.002168983,-0.11962668,0.9923746,-0.13282776,0.6351471,9.692764,-0.07588196,-0.03337097,0.005844116
2023/5/9 21:32,845,-0.16612045,-0.12745112,0.37003517,-0.033184227,0.55717254,9.790753,0.028333763,-0.001592939,-0.12036919,0.9923235,-0.17593384,0.4579773,10.242233,-0.03540039,0.05505371,0.018630981
2023/5/9 21:32,886,0.00200348,0.053487718,0.12027359,-0.049430165,0.5525445,9.790946,0.028308252,-8.99E-04,-0.122023225,0.99212307,-0.08076477,0.5806732,10.056091,0.008270264,0.013504028,0.001586914
2023/5/9 21:32,925,0.17529568,0.088888526,-0.10164547,-0.053814948,0.56297386,9.79033,0.02883462,-8.29E-04,-0.12365956,0.99190533,0.1179657,0.6961975,9.8394165,0.053009033,0.014572144,0.013305664
2023/5/9 21:32,965,-0.10999806,-0.06584722,-0.72333527,-0.04101336,0.5755107,9.789662,0.029386042,-0.001608724,-0.12544775,0.99166363,-0.12025452,0.49926758,9.1427,-0.04711914,-0.063201904,0.002655029
2023/5/9 21:32,1005,-0.12756547,-0.025321066,0.3874426,-0.029811839,0.5338906,9.792061,0.027202502,-0.00196518,-0.12750238,0.9914632,-0.08554077,0.52142334,10.157837,-0.08760071,-0.001403809,-0.033569336
2023/5/9 21:32,1045,-0.059824534,0.16903734,0.25329208,-0.029960828,0.522052,9.792699,0.026602821,-0.001899206,-0.12819807,0.99138993,-0.2866516,0.6758423,10.108765,-0.010894775,-0.02911377,0.0793457
2023/5/9 21:32,1085,0.070326895,0.10511762,0.31268024,-0.017157476,0.53596354,9.791978,0.027225662,-0.002612998,-0.12728965,0.9914884,0.21731567,0.6997833,10.260193,0.0934906,-0.020584106,0.002655029
2023/5/9 21:32,1125,-0.02181451,-0.048154354,-0.28495312,0.008029848,0.58474785,9.789198,0.029525584,-0.004250235,-0.12882069,0.99121916,-0.17114258,0.4837036,9.550308,0.13504028,-0.10900879,0.048446655
2023/5/9 21:32,1166,0.017686373,0.095772326,0.3098755,0.023468932,0.5981304,9.788364,0.030022688,-0.005077854,-0.13307026,0.9906388,0.12454224,0.74227905,10.095596,-0.036468506,0.056121826,-0.03250122
2023/5/9 21:32,1205,-0.22458665,-0.16036445,-0.009202004,-0.004561265,0.60833603,9.787763,0.03098278,-0.004006459,-0.13588634,0.99023175,-0.25193787,0.4112854,9.900467,0.0849762,0.004989624,0.11236572
2023/5/9 21:32,1245,0.3549724,0.13510156,-0.003591538,0.002061265,0.63166595,9.786284,0.031893153,-0.004598101,-0.13939367,0.98971266,0.404068,0.8087158,9.861557,0.03277588,0.027359009,-0.017593384
2023/5/9 21:32,1285,-0.114483654,-0.0313192,-0.46312714,-0.010742103,0.63646066,9.785969,0.032205354,-0.004154455,-0.14458108,0.98895997,-0.17771912,0.5986328,9.388702,-0.04711914,0.028411865,0.007980347
2023/5/9 21:32,1326,-0.03322252,0.063207924,0.2799015,-0.030268002,0.60020894,9.788219,0.030517166,-0.00290826,-0.14481878,0.9889832,-0.020904541,0.7117615,10.093201,-0.05883789,0.06677246,-0.026107788
2023/5/9 21:32,1365,-0.08519184,0.038746417,0.13341427,-0.03985064,0.5963167,9.788422,0.03039066,-0.002405053,-0.1451196,0.98894435,-0.1567688,0.6578827,10.024368,0.014663696,0.008178711,-0.003738403
2023/5/9 21:32,1405,0.10516061,-0.045788467,-0.17639637,-0.052296523,0.60112286,9.78807,0.030724743,-0.001828169,-0.1456216,0.98886144,-0.010131836,0.5962372,9.727478,0.002944946,0.030548096,-0.06765747
2023/5/9 21:32,1445,-0.19936402,-0.05666119,-0.25195122,-0.053939503,0.5972107,9.7883,0.030537557,-0.001747712,-0.14664371,0.98871636,-0.29922485,0.52441406,9.61795,-0.019424438,-0.007797241,-0.003738403
2023/5/9 21:32,1485,0.18624978,-0.060056567,0.14278412,-0.0671573,0.5671176,9.790008,0.028827649,-6.60E-04,-0.14610444,0.98884887,4.58E-05,0.49328613,9.851379,-0.12382507,0.059310913,0.031402588
2023/5/9 21:32,1525,0.08883125,-0.14285874,0.39245987,-0.08181226,0.548352,9.790965,0.028580073,-1.81E-05,-0.14571345,0.98891395,0.09162903,0.38793945,10.434967,0.1361084,-0.013122559,0.012237549
2023/5/9 21:32,1565,-0.03625828,0.1648578,-0.66872215,-0.06552574,0.59272707,9.788502,0.030405844,-0.001152891,-0.14502814,0.98895955,-0.13761902,0.73150635,9.178009,0.009338379,-0.032302856,0.064437866
2023/5/9 21:32,1605,-0.24449158,0.17193925,-0.033164024,-0.08739902,0.5432089,9.791204,0.028061075,3.44E-04,-0.14667036,0.9887873,-0.31298828,0.69081116,9.777161,-0.18666077,0.0816803,0.025024414
2023/5/9 21:32,1645,0.010668613,-0.14110306,0.47071934,-0.11904918,0.47449794,9.794439,0.024828479,0.002462091,-0.14640582,0.9889099,-0.12265015,0.3717804,10.341003,-0.12808228,0.05078125,-0.006942749
2023/5/9 21:32,1685,0.173756,-0.13418993,0.61937714,-0.103653856,0.4677982,9.794938,0.024375776,0.001726733,-0.14675882,0.9888704,0.054519653,0.3143158,10.5457,0.1084137,-0.09515381,-0.014404297
2023/5/9 21:32,1726,-0.15746483,0.17717278,-0.8331022,-0.076179095,0.52211845,9.792445,0.026911639,-1.79E-04,-0.15090783,0.9881814,-0.19088745,0.66148376,9.146286,0.0423584,-0.016326904,0.027145386
2023/5/9 21:32,1765,-0.20466688,0.28466368,-0.036128998,-0.10303031,0.47635445,9.794532,0.024813548,0.001462298,-0.15348755,0.9878379,-0.32795715,0.718338,9.591019,-0.23460388,0.108306885,0.05378723
2023/5/9 21:32,1805,0.036914453,0.2353644,0.30453587,-0.13096623,0.43304393,9.796209,0.022856668,0.003151263,-0.15599756,0.9874879,-0.11846924,0.6674652,10.213501,-0.034332275,0.05505371,-0.002685547
2023/5/9 21:32,1846,-0.04782851,0.11691424,0.6344986,-0.14716028,0.43156344,9.796044,0.023172332,0.003920893,-0.15987754,0.98685706,-0.14060974,0.57170105,10.52356,0.08709717,0.027359009,-0.059143066
2023/5/9 21:32,1885,0.1187852,-0.003299117,-0.5105047,-0.14620218,0.48579034,9.79352,0.025657687,0.003342328,-0.16202573,0.9864473,-0.12684631,0.5076599,9.508423,0.106277466,-0.025909424,-0.033569336
2023/5/9 21:32,1925,0.037346274,-0.09014428,-0.43813705,-0.1429788,0.4985771,9.792924,0.02616383,0.003059283,-0.1655511,0.9858493,-0.06819153,0.39930725,9.423416,-0.05670166,0.020965576,-0.059143066
2023/5/9 21:32,1965,-0.024769008,-0.100734115,0.23932171,-0.16100459,0.4513771,9.794934,0.02407356,0.004224167,-0.1680746,0.98547125,-0.21722412,0.3825531,9.968109,-0.116363525,0.056121826,-0.03996277
2023/5/9 21:32,2005,-0.117886454,0.011241168,0.32806778,-0.16964711,0.44921315,9.794887,0.024043422,0.004653953,-0.16902852,0.98530686,-0.29504395,0.4328308,10.330826,0.0892334,-0.021652222,-0.023986816
2023/5/9 21:32,2046,0.054144546,0.042046994,-0.3175516,-0.158022,0.4789563,9.793673,0.025440304,0.003804904,-0.1693458,0.98522097,-0.13821411,0.5190277,9.566483,0.038101196,-0.016326904,-0.003738403
2023/5/9 21:32,2085,-0.047344506,0.018095404,-0.20092201,-0.16153307,0.4641548,9.794328,0.024728216,0.004097172,-0.16982809,0.98515487,-0.1968689,0.4579773,9.649673,-0.10357666,0.014572144,-0.011199951
2023/5/9 21:32,2125,0.10201739,-0.015196264,0.4870186,-0.16342458,0.44130254,9.795353,0.02359601,0.004386963,-0.16996448,0.9851579,-0.09811401,0.41548157,10.402054,0.03277588,-0.032302856,-0.008010864
2023/5/9 21:32,2165,0.19219638,0.08303183,0.088391304,-0.14894632,0.47523242,9.793997,0.025178842,0.003348337,-0.1706196,0.98500955,0.06289673,0.50405884,10.040527,0.12013245,-0.02911377,-0.029312134
2023/5/9 21:32,2205,-0.2313873,-0.038448036,-0.5139227,-0.13996847,0.51688117,9.792018,0.02729346,0.002412966,-0.17180166,0.98475045,-0.3698578,0.53160095,9.43779,0.04875183,-0.034439087,-0.009063721
2023/5/9 21:32,2246,-0.019853845,0.09517717,0.09893799,-0.13668333,0.50734144,9.792563,0.026552157,0.002520716,-0.1719231,0.98474926,-0.21842957,0.5842743,9.914825,-0.06523132,0.030548096,0.014358521
2023/5/9 21:32,2285,-0.12257725,0.04683593,0.17688942,-0.1460842,0.49493593,9.793062,0.026141549,0.002985955,-0.17223641,0.9847042,-0.26870728,0.555542,10.0130005,-0.002380371,-0.00567627,0.019699097
2023/5/9 21:32,2325,0.094944224,-0.002893329,0.13427925,-0.14146899,0.5121775,9.792244,0.02697474,0.002618936,-0.17178603,0.9847614,-0.079559326,0.49627686,10.048904,0.0892334,-0.013122559,0.020751953
2023/5/9 21:32,2365,0.058680788,0.023706436,-0.323143,-0.14085488,0.5282659,9.791398,0.027778467,0.002445546,-0.171838,0.9847305,-0.16096497,0.5387726,9.581436,-0.024749756,0.019897461,0.017562866
2023/5/9 21:32,2405,0.0382106,0.003103316,0.10440445,-0.14514293,0.51695216,9.79194,0.02724867,0.002745767,-0.17236076,0.9846531,-0.093322754,0.5172272,9.99324,-0.011962891,0.020965576,-0.003738403
2023/5/9 21:32,2446,-0.069948226,-0.03632039,0.0360384,-0.16355188,0.5029222,9.79238,0.026705557,0.003792792,-0.17240712,0.9846564,-0.2250061,0.47772217,9.855576,-0.055633545,0.035873413,0.006912231
2023/5/9 21:32,2485,-0.017476767,0.003890932,0.22923374,-0.16161323,0.5020179,9.7924595,0.026642527,0.003706879,-0.17227666,0.98468125,-0.17233276,0.49508667,10.190765,0.0849762,-0.04508972,0.015426636
2023/5/9 21:32,2525,0.07400879,0.08680284,-0.44835567,-0.15729566,0.53446746,9.790812,0.028236287,0.003202919,-0.1723372,0.984628,-0.0592041,0.5914459,9.430008,-0.017288208,0.059310913,0.014358521
2023/5/9 21:32,2565,-0.005397037,0.018297076,0.29377556,-0.18012786,0.5017282,9.7921505,0.02658999,0.004780813,-0.17213035,0.98470366,-0.25074768,0.50645447,9.975876,-0.095062256,0.042266846,0.004776001
2023/5/9 21:32,2605,0.027222559,-0.10905397,0.2548046,-0.18123269,0.5007886,9.792178,0.026942894,0.004579928,-0.17205115,0.98470885,-0.18011475,0.37417603,10.211121,0.08816528,-0.037628174,0.014358521
2023/5/9 21:32,2645,0.18570101,0.025795162,-0.30716228,-0.16212574,0.5300469,9.790973,0.028163658,0.003345142,-0.1718132,0.9847212,0.001251221,0.54415894,9.660446,0.05088806,-0.046157837,5.19E-04
2023/5/9 21:32,2685,-0.023849487,-0.04052335,-0.1487112,-0.15813895,0.5202731,9.791562,0.02753043,0.003366642,-0.1724623,0.9846256,-0.15078735,0.49209595,9.643692,-0.09931946,0.049728394,-0.008010864
2023/5/9 21:32,2726,-0.13248502,0.018904924,0.35926056,-0.17450134,0.501497,9.792265,0.026730416,0.004355049,-0.17242114,0.9846509,-0.3225708,0.49926758,10.290726,0.03491211,-3.51E-04,0.013305664
2023/5/9 21:32,2765,-0.05878721,0.11104959,-0.1819458,-0.16515274,0.5185376,9.791538,0.027503679,0.00374383,-0.17212078,0.9846847,-0.24775696,0.68063354,9.666428,-0.013031006,7.17E-04,0.007980347
2023/5/9 21:32,2805,-0.012041166,0.010771573,0.116713524,-0.1697042,0.5098712,9.791916,0.02710771,0.004050247,-0.17206205,0.98470473,-0.20106506,0.5411682,10.010605,0.022125244,-0.019515991,-0.004806519
2023/5/9 21:32,2845,0.09918249,-0.011924148,-0.112431526,-0.15588814,0.520904,9.791565,0.02754093,0.003259752,-0.17204241,0.9846991,-0.13642883,0.55075073,9.751434,0.009338379,-0.007797241,0.010101318
2023/5/9 21:32,2885,0.09144434,0.06895065,0.16479778,-0.16927718,0.508067,9.792017,0.026924944,0.00419214,-0.17196132,0.9847267,-0.08135986,0.6465149,9.9579315,-0.050308228,0.053985596,-0.014404297
2023/5/9 21:32,2926,-0.22512878,-0.028516829,0.1627245,-0.18426071,0.50650144,9.791828,0.027230298,0.004821109,-0.17246078,0.98462814,-0.4201355,0.46754456,10.1285095,0.06472778,-0.016326904,0.001586914
2023/5/9 21:32,2965,0.06494796,0.095190704,-0.23286247,-0.17293338,0.53294915,9.79063,0.028377963,0.003866738,-0.17207557,0.9846673,-0.13104248,0.59025574,9.688583,0.024261475,-0.028045654,0.020751953
2023/5/9 21:32,3005,0.06356701,0.04363811,-0.36754608,-0.16461995,0.5394239,9.79042,0.028549422,0.00353206,-0.1721734,0.9846465,-0.04185486,0.6273651,9.522186,-0.057769775,0.020965576,-0.050613403
2023/5/9 21:32,3046,-0.25427943,-0.14718658,0.29860687,-0.18531252,0.49579087,9.792356,0.026539685,0.004943613,-0.17259881,0.9846222,-0.43688965,0.31851196,10.106964,-0.11743164,0.07849121,0.019699097
2023/5/9 21:32,3085,0.1272024,-0.028342664,0.6707916,-0.20941834,0.4726622,9.793015,0.025586572,0.006370374,-0.17213422,0.9847205,-0.08554077,0.4507904,10.517578,0.03277588,0.002853394,0.014358521
2023/5/9 21:32,3125,0.2821899,0.17376882,-0.6874981,-0.17980756,0.53481543,9.790405,0.028447323,0.004361771,-0.17126903,0.98480386,0.10658264,0.6459198,9.545532,0.13824463,-0.041885376,0.038864136
2023/5/9 21:32,3165,-0.05874315,0.044556677,-0.53209686,-0.18337333,0.5258576,9.790825,0.02802747,0.004622609,-0.17115098,0.9848352,-0.22621155,0.59025574,9.288147,-0.13980103,0.042266846,-0.017593384
2023/5/9 21:32,3206,0.034859866,0.12709025,0.4480896,-0.19857427,0.46707222,9.793508,0.024815071,0.00608627,-0.1712744,0.984892,-0.27348328,0.56510925,10.105774,-0.17282104,0.04866028,0.002655029
2023/5/9 21:32,3245,-0.086368844,-4.00E-04,0.7484312,-0.22366042,0.43309787,9.794529,0.023714537,0.007459927,-0.17102726,0.9849526,-0.37225342,0.41667175,10.676788,0.05834961,0.009246826,0.04951477
2023/5/9 21:32,3285,0.7657675,0.0342741,0.24211025,-0.18949406,0.47281018,9.793412,0.025582366,0.004952161,-0.17004305,0.98509204,0.51060486,0.50704956,10.090805,0.104156494,-0.15800476,-5.49E-04
2023/5/9 21:32,3326,0.8215287,-0.117296755,-0.016755104,-0.13904594,0.50052035,9.792882,0.026353164,0.002440108,-0.17129336,0.98486453,0.6793976,0.39631653,9.896271,0.007217407,-0.051483154,-0.087905884
2023/5/9 21:32,3365,0.9023267,-0.10328752,0.33632755,-0.12537037,0.4910201,9.793547,0.02576661,0.00204241,-0.17393486,0.9844179,0.8069,0.43522644,10.119537,-0.002380371,0.0625,-0.09428406
2023/5/9 21:32,3405,-0.3952158,0.06321192,-0.31786442,-0.14806286,0.53232336,9.791072,0.028056676,0.002659574,-0.1757877,0.9840246,-0.4201355,0.51782227,9.668228,0.20428467,-0.008865356,0.03567505
2023/5/9 21:32,3445,-0.04836011,0.50912046,-0.8914194,-0.114543706,0.6003644,9.787585,0.031174393,4.30E-04,-0.17376016,0.98429435,-0.23278809,1.1062012,8.908661,0.053009033,-0.10687256,0.1347351
2023/5/9 21:32,3485,0.0763569,0.36376375,0.22109604,-0.099454395,0.6028487,9.787598,0.03116604,-2.84E-04,-0.1716859,0.9846586,-0.008331299,0.97332764,10.080627,0.018920898,0.038009644,0.046325684
2023/5/9 21:32,3525,-0.87238795,-0.14494312,0.28826618,-0.11830184,0.60736847,9.787109,0.031558268,6.45E-04,-0.17101234,0.98476315,-0.9402771,0.508255,9.95314,-0.017288208,0.027359009,0.0793457
2023/5/9 21:32,3566,-0.48385248,-0.28337836,0.88803864,-0.14623287,0.60622513,9.786802,0.03174176,0.002105334,-0.16955683,0.98500687,-0.68289185,0.36160278,10.736649,0.06047058,0.0859375,0.064437866
2023/5/9 21:32,3605,-0.5069974,-0.44827956,-0.020492554,-0.1632934,0.65144384,9.783627,0.034557022,0.002514726,-0.16844739,0.9851015,-0.72180176,0.24369812,10.016586,0.17445374,-0.016326904,0.099594116
2023/5/9 21:32,3646,6.26E-04,-0.17982495,-0.65596294,-0.15451705,0.7082212,9.779823,0.037154835,0.001670514,-0.16563377,0.98548573,-0.14421082,0.5124359,9.216919,0.09669495,-0.018447876,0.16456604
2023/5/9 21:32,3685,0.05440341,0.014103591,-0.9320965,-0.14294077,0.7301983,9.778383,0.03789528,0.001109909,-0.1634112,0.98582935,-0.10888672,0.765625,8.897293,-0.034332275,0.009246826,0.052719116
2023/5/9 21:32,3725,-0.28000957,0.17426503,-0.07972145,-0.1741741,0.66942924,9.782224,0.035167545,0.002934032,-0.17035937,0.98474985,-0.39978027,0.8775635,9.625732,-0.24951172,0.122161865,-0.023986816
2023/5/9 21:32,3765,-0.6892777,0.003746092,1.0182095,-0.21027312,0.6047201,9.785729,0.032244768,0.005193506,-0.17396443,0.9842102,-0.92829895,0.6578827,10.893463,-0.025817871,0.006042481,0.006912231
2023/5/9 21:32,3806,-0.51423585,-0.11648893,0.05622673,-0.20869172,0.630793,9.784116,0.033540063,0.004895118,-0.17359468,0.9842337,-0.7822571,0.5513458,10.017181,0.0892334,0.003921509,0.05378723
2023/5/9 21:32,3845,-0.064336866,-0.06365812,-0.44300175,-0.22546355,0.64306873,9.782946,0.034321196,0.005538366,-0.17619197,0.9837417,-0.31658936,0.55374146,9.383316,-0.030075073,0.0859375,0.031402588
2023/5/9 21:32,3885,-0.14012474,0.033668876,-0.34688187,-0.2625136,0.6075059,9.784295,0.032568604,0.007889461,-0.17963463,0.98316246,-0.4386902,0.6369324,9.447968,-0.15364075,0.09233093,0.021820068
2023/5/9 21:32,3925,0.028595835,0.09079689,0.23899746,-0.29422352,0.56589204,9.785887,0.031093648,0.009581607,-0.17946897,0.98322546,-0.30940247,0.71655273,10.142273,-0.029006958,0.034805298,-0.011199951
2023/5/9 21:32,3965,-0.035349727,0.057044744,0.07489681,-0.29313007,0.552432,9.786689,0.030237619,0.009565368,-0.1839467,0.98242444,-0.33872986,0.5878601,9.83522,-0.08760071,0.001785278,-0.023986816
2023/5/9 21:32,4005,-0.026149035,0.15519828,0.49815178,-0.30866718,0.523363,9.787808,0.029216712,0.010484018,-0.19141923,0.9810174,-0.3728485,0.6351471,10.387085,-0.011962891,0.059310913,0.052719116
2023/5/9 21:32,4045,0.2759653,0.17730433,-0.037400246,-0.31421867,0.527827,9.787393,0.029582266,0.01033224,-0.19948797,0.97939914,-0.04425049,0.7069702,9.81308,0.002944946,-0.018447876,-0.030380249
2023/5/9 21:32,4086,0.11617887,-0.041214168,-0.1687479,-0.3130976,0.5229917,9.787688,0.029425563,0.010046685,-0.20877083,0.97747016,-0.19268799,0.46635437,9.636505,-0.034332275,0.014572144,-0.018661499
2023/5/9 21:32,4125,0.1754171,-0.044944644,-0.051394463,-0.31211698,0.5082546,9.788495,0.02877114,0.009891545,-0.21771692,0.97553766,-0.13223267,0.44898987,9.8316345,-0.011962891,0.006042481,-0.005874634
2023/5/9 21:32,4165,-0.032632977,-0.13147825,-0.22047997,-0.31431335,0.48765445,9.789474,0.027863193,0.00997087,-0.22678393,0.97349536,-0.36686707,0.37657166,9.601196,-0.12594604,-0.004608154,-0.006942749
2023/5/9 21:32,4205,0.25443152,-0.07640836,0.5944433,-0.30359426,0.44592604,9.7918005,0.025748232,0.009701667,-0.23508412,0.9715855,-0.066986084,0.3723755,10.460114,-0.006637573,-0.04508972,-0.011199951
2023/5/9 21:32,4245,-0.115553975,-0.1787144,-0.08305454,-0.29439366,0.45744783,9.791551,0.026285347,0.008885319,-0.24329484,0.96955544,-0.37882996,0.26164246,9.842407,0.007217407,0.016693115,0.011169434
2023/5/9 21:32,4286,0.23424664,0.047462493,0.16197681,-0.3017821,0.43882644,9.792177,0.025525318,0.009292077,-0.25051045,0.9677327,-0.11128235,0.46455383,9.997437,-0.04286194,0.006042481,0.03567505
2023/5/9 21:32,4325,0.21003816,0.20504585,-0.18948936,-0.2910954,0.45052102,9.79197,0.026161889,0.008224257,-0.25848892,0.96562487,-0.0370636,0.6752472,9.822052,0.06260681,-0.05041504,-0.003738403
2023/5/9 21:32,4365,0.18905109,0.042536676,-0.0530653,-0.2753875,0.4506379,9.7924185,0.025660884,0.007472594,-0.2672501,0.9632565,-0.114868164,0.5274048,9.71431,-0.106781006,0.013504028,-0.018661499
2023/5/9 21:32,4405,0.12352157,-0.011170417,0.63271236,-0.27794614,0.4220373,9.793621,0.024706604,0.00753213,-0.27614778,0.96076804,-0.14120483,0.41607666,10.548691,0.0700531,-0.047210693,-0.049545288
2023/5/9 21:32,4446,0.16149732,-0.05157274,-0.70739174,-0.2544562,0.46949127,9.7921,0.02665145,0.005618277,-0.28479558,0.9582012,-0.07298279,0.42684937,9.236679,0.041305542,-0.016326904,-0.047424316
2023/5/9 21:32,4485,-0.054215312,-0.042663425,0.13269806,-0.27072906,0.430273,9.793466,0.025028257,0.006770397,-0.2929643,0.95577174,-0.3513031,0.34126282,9.893875,-0.12594604,0.059310913,-0.037826538
2023/5/9 21:32,4525,0.048735857,-0.09795141,0.101896286,-0.27637538,0.42335686,9.793609,0.02482575,0.006971902,-0.29978606,0.9536579,-0.24775696,0.3358612,10.024963,0.07858276,-0.051483154,-0.03996277
2023/5/9 21:32,4565,0.12319636,0.055679917,-0.22424316,-0.25692734,0.43932378,9.793435,0.025342464,0.005616224,-0.30600083,0.9516773,-0.12924194,0.4513855,9.592209,-0.016220093,-0.026977539,-0.035705566
2023/5/9 21:32,4605,-0.034950525,0.06571618,0.016511917,-0.2580093,0.41929263,9.794284,0.024424503,0.005823073,-0.3121735,0.94969326,-0.24536133,0.5052643,9.822647,-0.07588196,0.016693115,-0.03996277
2023/5/9 21:32,4645,0.01208052,0.07840058,0.36248493,-0.2591824,0.4000743,9.795058,0.023531158,0.006024583,-0.31743506,0.94796884,-0.29981995,0.46875,10.243439,-0.005569458,-0.013122559,-0.03250122
2023/5/9 21:32,4686,-0.22999549,0.056084424,0.13360405,-0.25646022,0.4078165,9.79481,0.024010858,0.005723063,-0.31833833,0.94765574,-0.4608307,0.4621582,10.187775,0.051956177,-0.009933472,-0.03677368
2023/5/9 21:32,4726,-0.061636806,0.07009956,-0.25975704,-0.252808,0.42488644,9.794179,0.024662817,0.005252827,-0.32208076,0.9463763,-0.33035278,0.52381897,9.580246,-0.010894775,0.009246826,-0.017593384
2023/5/9 21:32,4765,-0.26201618,-0.002047598,0.057956696,-0.27612582,0.41139588,9.794126,0.024412308,0.006528132,-0.32378036,0.94579476,-0.55181885,0.43881226,9.910049,-0.040725708,0.087005615,0.002655029
2023/5/9 21:32,4805,-0.24626622,-0.15115786,0.33087444,-0.29263398,0.40963176,9.79372,0.024600798,0.007351686,-0.32386273,0.9457556,-0.55960083,0.31611633,10.180588,0.06047058,-0.008865356,0.006912231
2023/5/9 21:32,4845,0.030555218,-0.027826667,-0.3013897,-0.28218004,0.43596357,9.792891,0.025695514,0.006426944,-0.3233173,0.9459199,-0.2537384,0.40290833,9.622742,0.026382446,-0.014190674,0.04525757
2023/5/9 21:32,4885,0.2935883,-0.056299776,0.15333176,-0.2875523,0.42408392,9.793255,0.025205113,0.006902063,-0.32257208,0.9461841,-0.049041748,0.42504883,9.899261,-0.06416321,0.051849365,0.016494751
2023/5/9 21:32,4925,0.06894222,-0.037591457,0.12487602,-0.29442602,0.41996428,9.793229,0.025120864,0.007296585,-0.32276437,0.94611776,-0.20585632,0.38075256,10.036942,0.035964966,-0.023773193,-0.023986816
2023/5/9 21:32,4966,-0.007866293,0.015333295,0.022090912,-0.2921529,0.41795644,9.793383,0.024906421,0.007319351,-0.3226464,0.94616354,-0.32138062,0.4412079,9.829834,-0.04498291,0.027359009,0.034606934
2023/5/9 21:32,5005,0.29440477,0.056897193,0.24636269,-0.29687044,0.40544328,9.793766,0.02443098,0.007570681,-0.3219952,0.94639575,-0.038253784,0.44360352,10.126724,-0.001312256,-0.02911377,0.019699097
2023/5/9 21:32,5045,0.119452596,0.009574145,-0.04242325,-0.26577315,0.42473793,9.793843,0.024974918,0.005633094,-0.32220057,0.9463252,-0.08015442,0.40948486,9.848984,0.06793213,-0.07064819,-0.02078247
2023/5/9 21:32,5085,0.01774916,0.02691874,-0.22807693,-0.25660047,0.43592063,9.793596,0.025220172,0.00531128,-0.32247227,0.94622797,-0.25553894,0.44181824,9.611359,-0.036468506,0.034805298,-0.018661499
2023/5/9 21:32,5126,-0.07456115,-0.037463844,0.21671009,-0.27128854,0.41628954,9.794054,0.02450247,0.006303584,-0.32316646,0.94600385,-0.32556152,0.41667175,10.055496,-0.02154541,-0.00567627,-0.03677368
2023/5/9 21:32,5165,-0.07835257,-0.0625135,0.11337662,-0.2645673,0.4186054,9.794138,0.024569362,0.005850833,-0.32379866,0.94578886,-0.37704468,0.3831482,9.988449,0.029586792,-0.03869629,-0.021850586
2023/5/9 21:32,5205,-0.08125302,-0.029873788,0.2508688,-0.25851738,0.42042425,9.794223,0.02456114,0.005511007,-0.3244864,0.9455554,-0.363266,0.38554382,10.157837,0.02319336,7.17E-04,-0.02078247
2023/5/9 21:32,5246,0.15087077,0.01708585,-0.124482155,-0.24977522,0.44429812,9.793395,0.02556923,0.004690961,-0.3245977,0.9454949,-0.09931946,0.46096802,9.790924,0.08177185,-0.026977539,-0.009063721
2023/5/9 21:32,5285,-0.08455533,-0.02767539,-0.30091476,-0.24544993,0.4624206,9.792666,0.026372718,0.00417966,-0.32468492,0.94544524,-0.28904724,0.44898987,9.527573,-0.017288208,0.028411865,0.002655029
2023/5/9 21:32,5325,0.003191531,0.06335753,0.14405537,-0.26612458,0.44236216,9.793053,0.025748134,0.005505644,-0.3248192,0.94540954,-0.2537384,0.5088501,9.890884,-0.07267761,0.044403076,-0.03677368
2023/5/9 21:32,5365,-0.2164351,-0.11006236,0.36098194,-0.27823862,0.43027812,9.793255,0.025435453,0.006215729,-0.3254453,0.94519824,-0.55960083,0.37358093,10.323044,0.031707764,-0.013122559,0.015426636
2023/5/9 21:32,5405,0.053100884,-0.007420033,-0.3687954,-0.27367374,0.4566965,9.792187,0.026681256,0.005574662,-0.3252049,0.94525063,-0.1855011,0.46514893,9.503021,0.043426514,-0.004608154,-0.002685547
2023/5/9 21:32,5446,-0.084566236,-0.061163485,0.019961357,-0.2813453,0.44098175,9.79269,0.025934279,0.006261754,-0.32485303,0.94538814,-0.394989,0.41427612,9.753815,-0.09185791,0.030548096,0.04206848
2023/5/9 21:32,5485,0.17648351,0.053010076,0.3969431,-0.27835184,0.43413162,9.793081,0.02555123,0.006242146,-0.32443792,0.9455412,-0.08135986,0.48490906,10.341003,0.045562744,-0.02911377,-0.001617432
2023/5/9 21:32,5525,0.050332963,-0.008163661,-0.10058212,-0.2618031,0.45258865,9.792702,0.02616755,0.00514043,-0.3243585,0.94555825,-0.2315979,0.4519806,9.812485,0.03491211,-0.03869629,0.006912231
2023/5/9 21:32,5565,-0.1327062,-0.026434898,-0.12963295,-0.26148817,0.4489566,9.792877,0.025987007,0.005185264,-0.32436207,0.94556177,-0.40577698,0.43643188,9.737061,-0.046051025,0.020965576,0.005844116
2023/5/9 21:32,5605,-0.0715065,0.04251805,0.08100319,-0.26762947,0.43856,9.793183,0.02558503,0.005661868,-0.32405752,0.9456744,-0.34651184,0.46096802,9.969894,-0.002380371,-0.004608154,0.022888184
2023/5/9 21:32,5646,-0.10981822,0.042814463,0.023733139,-0.25546524,0.43835613,9.793516,0.025371836,0.005088381,-0.3236839,0.94581133,-0.34591675,0.50704956,9.820862,-0.016220093,-0.047210693,0.019699097
2023/5/9 21:32,5685,0.020648807,-0.008822888,0.034532547,-0.24409802,0.4348295,9.793963,0.025004601,0.004507527,-0.323078,0.9460312,-0.31958008,0.41548157,9.992645,0.008270264,-0.028045654,0.036743164
2023/5/9 21:32,5725,0.12942673,0.02881983,-0.02120018,-0.22970182,0.44291714,9.79395,0.0251809,0.003794312,-0.32256553,0.94620454,-0.09870911,0.49328613,9.856766,0.001876831,0.018829346,0.001586914
2023/5/9 21:32,5765,-0.04021749,-0.07106286,-0.004070282,-0.23830967,0.43682462,9.794018,0.024986623,0.004412585,-0.32250428,0.94622785,-0.25912476,0.39213562,9.892685,-0.010894775,0.024154663,0.013305664
2023/5/9 21:32,5805,0.04603131,-0.030280143,-0.09891415,-0.23952278,0.4301066,9.794286,0.024703648,0.004490234,-0.32234955,0.94628763,-0.17292786,0.44599915,9.77298,-0.020492554,-0.007797241,-0.003738403
2023/5/9 21:32,5845,-0.040095866,0.0373511,0.16699505,-0.23856659,0.4192189,9.794781,0.024162887,0.004618356,-0.32253814,0.9462367,-0.2902527,0.4226532,10.065063,-0.018356323,-0.002471924,-0.013336182
2023/5/9 21:32,5886,0.061085522,0.066153586,0.12856579,-0.23493324,0.4260883,9.794572,0.024435097,0.004328514,-0.32259196,0.94621277,-0.20227051,0.4507904,10.068054,0.03277588,0.011367798,5.19E-04
2023/5/9 21:32,5925,-0.035489738,0.07414141,-0.035933495,-0.23966564,0.43753955,9.793952,0.025066696,0.004365533,-0.3227015,0.9461587,-0.24595642,0.52142334,9.754425,-0.032211304,-0.006729126,-0.012268066
2023/5/9 21:32,5965,0.038385943,0.003327131,0.15980625,-0.23431556,0.43457085,9.794213,0.02483509,0.004156453,-0.32269108,0.9461693,-0.19268799,0.45617676,10.081833,0.029586792,-0.03869629,-0.029312134
2023/5/9 21:32,6005,0.007996887,-0.06739271,-0.020090103,-0.19972906,0.44812164,9.79437,0.024921346,0.002245688,-0.32338002,0.9459383,-0.17233276,0.36938477,9.942963,0.06367493,-0.08236694,-0.029312134
2023/5/9 21:32,6046,0.115909904,0.028059602,-0.28327465,-0.18214038,0.45867625,9.794225,0.025086211,0.001163063,-0.32349208,0.9458976,-0.12445068,0.45617676,9.5473175,-0.02368164,-0.007797241,-5.49E-04
2023/5/9 21:32,6085,-0.09279099,0.002673686,0.23162365,-0.17104873,0.44789234,9.794924,0.024397548,7.97E-04,-0.32385597,0.9457914,-0.2423706,0.4513855,10.005814,-0.006637573,-0.039764404,-0.025054932
2023/5/9 21:32,6125,-0.059855774,0.08803952,0.02541256,-0.16026281,0.4537191,9.794838,0.02456934,2.03E-04,-0.32402766,0.9457285,-0.24476624,0.51542664,9.913635,-0.004501343,-0.008865356,-0.003738403
2023/5/9 21:32,6165,-0.10996376,0.008582622,0.08413124,-0.16479969,0.45055193,9.794909,0.024462527,4.96E-04,-0.3243192,0.9456312,-0.26571655,0.50405884,10.0130005,0.005081177,-0.01739502,-0.009063721
2023/5/9 21:32,6206,-0.020945325,0.053799033,-0.1792059,-0.15903713,0.46252218,9.794445,0.024944957,1.81E-05,-0.32437602,0.94559926,-0.16215515,0.4873047,9.723892,0.02319336,-0.009933472,0.007980347
2023/5/9 21:32,6245,0.031251088,-0.013947636,0.012115479,-0.15472068,0.45952883,9.794657,0.024728987,-1.40E-04,-0.32434323,0.9456162,-0.14001465,0.45916748,9.880112,-0.014099121,-0.012069702,-0.004806519
2023/5/9 21:32,6285,-0.041462004,0.01641351,-0.07477093,-0.15823148,0.45852503,9.794646,0.02473867,4.29E-05,-0.3244699,0.94557244,-0.21243286,0.45736694,9.822647,-0.022613525,0.011367798,-0.004806519
2023/5/9 21:32,6325,-0.01748082,-0.011673212,0.27333546,-0.16713174,0.4489911,9.79494,0.024426011,6.26E-04,-0.32464346,0.9455208,-0.20704651,0.46635437,10.162628,0.012542725,7.17E-04,-0.009063721
2023/5/9 21:32,6365,-0.06300959,-0.013092428,-0.01313591,-0.16074596,0.4657224,9.794266,0.02525978,-7.18E-05,-0.32455322,0.94553006,-0.23577881,0.43702698,9.89328,0.06472778,-0.03869629,0.002655029
2023/5/9 21:32,6405,-0.07871027,0.11541021,-0.3512497,-0.16727148,0.49237096,9.792852,0.026712976,3.00E-05,-0.32419503,0.945613,-0.25793457,0.5812683,9.686783,0.038101196,0.05291748,0.023956299
2023/5/9 21:32,6445,-0.044436425,0.06687826,0.102835655,-0.17836463,0.491744,9.792689,0.02654812,4.96E-04,-0.323785,0.94575804,-0.23518372,0.5519409,9.89209,-0.057769775,-0.008865356,0.014358521
2023/5/9 21:32,6485,0.043815076,0.03813407,0.16898823,-0.1759301,0.4893639,9.792853,0.026616147,4.03E-04,-0.32387188,0.9457264,-0.0945282,0.53338623,10.048904,0.038101196,0.011367798,-0.031448364
2023/5/9 21:32,6525,-0.04690139,-0.08637196,-0.118722916,-0.17681827,0.50011754,9.792293,0.027100137,2.07E-04,-0.32410565,0.94563264,-0.23278809,0.36938477,9.819656,0.041305542,-0.012069702,0.018630981
2023/5/9 21:32,6566,-0.027908787,-0.052602947,-0.047894478,-0.18378368,0.5003241,9.792155,0.027179288,6.06E-04,-0.32368115,0.94577557,-0.13223267,0.4441986,9.786148,-0.02154541,0.047592163,0.025024414
2023/5/9 21:32,6605,-0.02934222,-0.002390504,0.045921326,-0.19326738,0.49923956,9.7920265,0.027283119,0.001095243,-0.32319853,0.94593716,-0.23997498,0.48132324,9.959717,0.03916931,-0.031234741,0.041000366
2023/5/9 21:32,6645,0.03186062,0.015405357,-0.10622597,-0.17707185,0.50934786,9.791813,0.027503952,1.67E-04,-0.32248953,0.94617337,-0.15258789,0.539978,9.785538,-0.013031006,-0.006729126,0.018630981
2023/5/9 21:32,6686,0.026966989,0.01110971,0.02033329,-0.17816085,0.50405407,9.792067,0.027266061,3.13E-04,-0.3223014,0.9462443,-0.09272766,0.58247375,9.902863,-0.017288208,0.027359009,0.003707886
2023/5/9 21:32,6725,0.049204007,0.006743252,-0.03218174,-0.17969133,0.5038052,9.792051,0.027279168,3.95E-04,-0.32216424,0.9462906,-0.10888672,0.50645447,9.867538,0.017868042,-0.021652222,-5.49E-04
2023/5/9 21:32,6765,-0.07702881,-0.008328974,-0.119431496,-0.18076172,0.501307,9.79216,0.027078591,6.25E-04,-0.32208547,0.94632304,-0.24057007,0.4980774,9.732269,-0.04925537,0.03694153,0.012237549
2023/5/9 21:32,6806,-0.058327436,-0.03952679,0.33775806,-0.1848837,0.4834027,9.792984,0.026361084,0.001025088,-0.32201263,0.94636774,-0.19866943,0.46754456,10.220688,8.24E-04,-0.002471924,-0.004806519
2023/5/9 21:32,6845,-0.040393993,0.006986141,0.041272163,-0.19480243,0.4949167,9.792215,0.027097927,0.001277857,-0.32189974,0.946385,-0.30282593,0.50704956,10.027359,0.045562744,0.01776123,0.02607727
2023/5/9 21:32,6885,0.0599349,0.002796352,-0.14744759,-0.19083571,0.51212126,9.7914095,0.027863646,8.20E-04,-0.32134375,0.9465522,-0.095718384,0.58665466,9.771774,0.035964966,-0.004608154,0.015426636
2023/5/9 21:32,6925,0.20357937,0.041161954,-0.40029812,-0.1798382,0.52729404,9.7908125,0.028416565,4.61E-05,-0.32113504,0.946607,0.006027222,0.57229614,9.447357,-0.027938843,0.024154663,-0.019729614
2023/5/9 21:32,6965,-0.10285102,-0.066717714,0.41484928,-0.20699717,0.4867091,9.792377,0.026900658,0.0020165,-0.32137367,0.94656813,-0.2902527,0.42025757,10.12912,-0.07055664,0.03694153,0.012237549
2023/5/9 21:32,7005,0.095957145,0.05806932,0.20363998,-0.19954553,0.49775288,9.791977,0.027312543,0.001467841,-0.32163706,0.9464679,-0.12445068,0.5268097,10.106369,0.09776306,-0.061065674,-0.03463745
2023/5/9 21:32,7046,-0.15830866,-0.044722915,-0.370409,-0.19142345,0.5253207,9.790698,0.02851175,6.12E-04,-0.32200405,0.9463087,-0.2938385,0.5184326,9.567673,0.033843994,-0.004608154,-5.49E-04
2023/5/9 21:32,7085,0.06362881,-0.011810482,-0.08881855,-0.18096821,0.52404135,9.790966,0.028165167,1.60E-04,-0.32202446,0.9463123,-0.0879364,0.4579773,9.670624,-0.046051025,-0.00567627,-0.013336182
2023/5/9 21:32,7125,-0.19917779,0.016425014,0.04418564,-0.19458155,0.5066779,9.791618,0.0275878,0.001244697,-0.3226254,0.9461238,-0.33514404,0.5800781,9.976486,-0.051376343,0.056121826,-0.033569336
2023/5/9 21:32,7165,-0.12579265,-0.048716605,0.40049076,-0.20855057,0.49160618,9.7921,0.027228769,0.001885582,-0.3222992,0.9462443,-0.40397644,0.45677185,10.215897,0.029586792,-0.025909424,0.038864136
2023/5/9 21:32,7206,0.22903903,0.1994561,-0.14220905,-0.1971397,0.51672596,9.791042,0.028224526,0.001105748,-0.32230967,0.94621277,0.0826416,0.7536621,9.739456,-0.008773804,0.044403076,-0.030380249
2023/5/9 21:32,7245,-0.11029822,-0.08953482,0.05160618,-0.21645561,0.5071334,9.791137,0.02804573,0.002103251,-0.322552,0.94613385,-0.33694458,0.44659424,9.874725,-0.002380371,0.022033691,-0.002685547
2023/5/9 21:32,7285,-0.17039849,-0.031096518,0.03957081,-0.23299746,0.508782,9.79067,0.028398115,0.002872804,-0.32261312,0.9461005,-0.4315033,0.4579773,9.947754,-2.44E-04,0.047592163,0.005844116
2023/5/9 21:32,7325,0.0842098,0.021613955,-0.2784891,-0.20901342,0.5221741,9.790507,0.02864961,0.001500717,-0.32240543,0.9461668,-0.1567688,0.5453644,9.598206,0.0700531,-0.17184448,0.011169434
2023/5/9 21:32,7365,-0.06167732,-0.012837172,0.21984959,-0.19452168,0.5149102,9.79119,0.028060447,9.07E-04,-0.3228733,0.9460257,-0.1280365,0.508255,9.927994,-0.10783386,0.11151123,-0.031448364
2023/5/9 21:32,7406,-0.13156223,-0.03761518,0.45659828,-0.22572489,0.5026665,9.791157,0.027983543,0.002614456,-0.32288393,0.94602114,-0.41773987,0.42025757,10.501404,0.15208435,-0.057861328,0.02607727
2023/5/9 21:32,7445,0.23124813,0.06461793,-0.94669247,-0.18848918,0.56510353,9.78854,0.030386077,-2.07E-04,-0.3227062,0.9460113,0.083847046,0.6602783,8.934402,-0.005569458,0.013504028,-0.017593384
2023/5/9 21:32,7486,-0.034864932,-0.084156334,0.68223286,-0.23391165,0.50699645,9.790742,0.02812302,0.00334664,-0.3230874,0.94594526,-0.2363739,0.4334259,10.430786,-0.14086914,0.13920593,-0.023986816
2023/5/9 21:32,7525,0.11516422,-0.14441824,0.074359894,-0.2353536,0.51867884,9.790095,0.029233703,0.002375958,-0.32346115,0.9457868,-0.17892456,0.35263062,10.119537,0.17871094,-0.11859131,-0.012268066
2023/5/9 21:32,7565,0.37179565,0.03292203,-0.7059126,-0.21058844,0.56293863,9.788215,0.030646956,8.54E-04,-0.32399732,0.9455611,0.15386963,0.5782776,9.1792145,-0.008773804,0.05291748,-0.049545288
2023/5/9 21:32,7605,0.1531098,0.1269232,-0.6033697,-0.23759426,0.5354248,9.78914,0.029768232,0.002576049,-0.3251479,0.945191,-0.05142212,0.65249634,9.212128,-0.12487793,0.04866028,-0.08470154
2023/5/9 21:32,7645,0.03488356,0.16832456,0.4311266,-0.23976627,0.48228428,9.791849,0.027245112,0.003516706,-0.32675248,0.9447106,-0.18730164,0.65849304,10.235062,-0.092926025,-3.51E-04,-0.08576965
2023/5/9 21:32,7686,-0.10156116,0.30198517,-0.44690418,-0.25968784,0.45522594,9.792635,0.026279792,0.004888585,-0.32817638,0.9442382,-0.30282593,0.7291107,9.491653,-0.15896606,0.1051178,-0.07723999
2023/5/9 21:32,7725,-0.35849965,0.26671857,0.47607327,-0.3140455,0.36228564,9.794922,0.022722133,0.009035248,-0.32935202,0.9438905,-0.6589508,0.65190125,10.275757,-0.24845886,0.109375,-0.041030884
2023/5/9 21:32,7765,-0.519964,-0.18822634,0.6023178,-0.3304214,0.32145554,9.795809,0.021029316,0.010512347,-0.32923672,0.9439547,-0.89598083,0.17306519,10.712692,0.07751465,-0.015258789,0.055908203
2023/5/9 21:32,7805,-0.29946685,0.07581052,-0.9019146,-0.34891602,0.34437913,9.794389,0.022332778,0.011364965,-0.32808572,0.94431555,-0.5434418,0.3645935,9.079849,-0.071624756,0.110443115,0.050582886
2023/5/9 21:32,7846,-0.12430555,0.11471251,0.94403934,-0.38321492,0.25140366,9.795934,0.017921476,0.014769751,-0.3271473,0.94468796,-0.5278778,0.44181824,10.588196,-0.2868042,0.11470032,0.05697632
2023/5/9 21:32,7885,-0.17736644,-0.046938017,1.1308079,-0.4341632,0.20638934,9.79486,0.01715986,0.017511206,-0.32537568,0.9452669,-0.5464325,0.1545105,11.102356,0.082839966,0.077423096,0.1219635
2023/5/9 21:32,7925,-0.24617496,-0.22445929,-0.20256138,-0.43645477,0.2741869,9.793096,0.02100053,0.016327765,-0.3225806,0.9461681,-0.68829346,0.008468628,9.811279,0.24902344,-0.011001587,0.17521667
2023/5/9 21:32,7965,-0.02184093,-0.084050745,-0.68281746,-0.45404387,0.32686803,9.790679,0.023201948,0.016612915,-0.31959894,0.9471231,-0.4560547,0.2341156,9.0768585,-0.034332275,0.06996155,0.13900757
2023/5/9 21:32,8005,0.13900334,-0.06697965,0.014697075,-0.4593913,0.30863705,9.79102,0.02236462,0.017224824,-0.31721857,0.94793224,-0.2938385,0.23770142,9.853775,-0.038589478,-0.030166626,0.11982727
2023/5/9 21:32,8045,0.23408124,-0.056475043,0.5548458,-0.43557876,0.30356288,9.792269,0.021687213,0.016216118,-0.3145429,0.94885695,-0.19926453,0.26164246,10.424194,0.027450562,-0.044021606,0.1730957
2023/5/9 21:32,8086,0.23958409,0.002341837,-0.18522644,-0.43365604,0.3464349,9.79093,0.023686206,0.015506854,-0.31167552,0.94976676,-0.14659119,0.3250885,9.906448,0.14356995,0.046524048,0.107040405
2023/5/9 21:32,8125,0.055179477,0.21587053,-0.41907883,-0.44929585,0.36698037,9.789477,0.024737505,0.016170533,-0.3102201,0.95020527,-0.38960266,0.51423645,9.316284,-0.09185791,0.05291748,0.03993225
2023/5/9 21:32,8165,-0.13130021,-0.064444095,1.0147734,-0.46777368,0.32753587,9.79001,0.023275157,0.01751228,-0.30958837,0.95042443,-0.5260773,0.31791687,10.708511,-0.011962891,0.011367798,0.0473938
2023/5/9 21:32,8205,-0.20787075,-0.32015833,0.11789703,-0.44081077,0.3748942,9.789562,0.025453804,0.014988713,-0.3080567,0.9509093,-0.6541748,0.04257202,10.115341,0.19256592,-0.15907288,0.097457886
2023/5/9 21:32,8245,-0.031861603,-0.22474554,-0.052340508,-0.3789157,0.42189994,9.790241,0.02636629,0.011450213,-0.306206,0.9515312,-0.47399902,0.1874237,9.645477,0.026382446,-0.13456726,0.1027832
2023/5/9 21:32,8285,0.07278046,-0.22313976,0.23037243,-0.32958493,0.44424966,9.791037,0.026703611,0.009108921,-0.30451486,0.9520896,-0.25553894,0.17785645,10.194351,0.1169281,-0.09089661,0.08892822
2023/5/9 21:32,8326,0.31855989,0.04320824,-0.2601614,-0.28138858,0.48556527,9.790579,0.027977547,0.006055223,-0.3069044,0.9513098,0.020996094,0.500473,9.591019,0.061538696,-0.13989258,0.04951477
2023/5/9 21:32,8365,0.33029473,0.12839913,-0.17943859,-0.24180637,0.51593465,9.790084,0.02886008,0.003431777,-0.31435877,0.9488593,0.090423584,0.64172363,9.800507,0.09669495,-0.04827881,0.001586914
2023/5/9 21:32,8405,0.25299495,0.02995348,-0.07635307,-0.22085305,0.5241449,9.790142,0.028941963,0.002009171,-0.32340822,0.9458147,-0.014923096,0.61299133,9.591019,-0.04711914,-0.034439087,-0.052749634
2023/5/9 21:32,8446,0.0721447,-0.157166,0.2690878,-0.20319593,0.52287954,9.790592,0.028599378,8.96E-04,-0.33270943,0.9425952,-0.04484558,0.40769958,10.196747,0.071121216,-0.06852722,-0.04849243
2023/5/9 21:32,8485,0.046869293,-0.19458443,-0.44470024,-0.17609765,0.54999423,9.789632,0.029434357,-0.001154483,-0.3418749,0.93928367,-0.13882446,0.28619385,9.503632,0.040237427,-0.047210693,-0.07937622
2023/5/9 21:32,8525,0.13168465,0.03868127,-0.36228657,-0.15968601,0.5409509,9.790417,0.028414726,-0.002267776,-0.35611087,0.93400884,-0.030471802,0.5704956,9.375534,-0.09825134,-0.05999756,-0.10813904
2023/5/9 21:32,8565,0.002526596,0.05306244,0.3778839,-0.13812496,0.49843654,9.793001,0.026039278,-0.002696864,-0.36183065,0.9318762,-0.07597351,0.5663147,10.293716,-0.06416321,-0.058929443,-0.092163086
2023/5/9 21:32,8605,-0.060001045,0.13029557,0.003460884,-0.12385956,0.500036,9.79311,0.026136484,-0.003613666,-0.37086907,0.9283103,-0.17712402,0.62916565,10.008804,0.038101196,0.007110596,-0.09109497
2023/5/9 21:32,8646,0.01623784,0.19034696,0.11928558,-0.13644306,0.48805684,9.793548,0.025668968,-0.003026156,-0.38001904,0.92461747,-0.1232605,0.69140625,9.900467,-0.07374573,0.016693115,-0.10494995
2023/5/9 21:32,8685,-0.04903388,-0.03660631,0.1812458,-0.15008922,0.48952258,9.793275,0.025977414,-0.00267124,-0.38926065,0.9207574,-0.16455078,0.45498657,10.123718,0.06686401,0.02947998,-0.14222717
2023/5/9 21:32,8725,0.29877287,0.0738346,-0.36770344,-0.15616722,0.4955607,9.792875,0.026359279,-0.002734842,-0.39724404,0.9173303,0.03715515,0.50286865,9.469513,-0.057769775,0.025222778,-0.13796997
2023/5/9 21:32,8765,-0.017878115,-0.09746349,0.20860958,-0.1872546,0.46801075,9.793686,0.025692066,-9.47E-04,-0.4052882,0.9138274,-0.19747925,0.37716675,10.105774,-0.030075073,0.06782532,-0.19335938
2023/5/9 21:32,8805,0.22456832,0.15032053,0.23112297,-0.18139893,0.45880568,9.794232,0.025136234,-0.001150245,-0.40967402,0.9118849,-0.011322022,0.57588196,9.995636,-0.022613525,-0.06213379,-0.1954956
2023/5/9 21:32,8845,-0.56438005,-0.0685316,0.03612995,-0.172967,0.46972394,9.793868,0.025633005,-0.001967948,-0.41333342,0.91021675,-0.6942749,0.37776184,10.114746,0.08604431,-0.023773193,-0.11772156
2023/5/9 21:32,8885,0.38666093,0.073073655,-0.1614933,-0.15277386,0.4772105,9.79384,0.025169564,-0.003148835,-0.41498613,0.9094741,0.006637573,0.50405884,9.677811,-0.050308228,-0.07810974,-0.123046875
2023/5/9 21:32,8925,-0.48818237,-0.13113356,-0.10620499,-0.12453763,0.458356,9.795141,0.023839595,-0.004099637,-0.41773602,0.9082464,-0.4961548,0.37956238,9.843002,0.005081177,-0.057861328,-0.087905884
2023/5/9 21:32,8965,0.10674606,0.021844149,-0.29323006,-0.11950341,0.4400839,9.7960415,0.022940483,-0.003823157,-0.41702235,0.90859866,-0.016708374,0.4681549,9.459335,-0.12487793,-0.009933472,-0.08576965
2023/5/9 21:32,9005,-0.47285166,-0.19861463,0.3263216,-0.11355975,0.39823452,9.797903,0.020884795,-0.003132504,-0.41374493,0.91014785,-0.5829468,0.1772461,10.22728,-0.05670166,-0.05253601,-0.017593384
2023/5/9 21:32,9045,0.28700143,0.30736104,0.43223095,-0.0942442,0.38711163,9.798553,0.019980654,-0.003686476,-0.40882578,0.91238624,0.1688385,0.72013855,10.371521,-0.026885986,0.013504028,-0.03677368
2023/5/9 21:32,9086,-0.08749675,0.04814443,-0.2476244,-0.0885411,0.396031,9.798251,0.020300848,-0.00401913,-0.40347406,0.914757,-0.2034607,0.44241333,9.67601,0.069000244,-0.09194946,0.043121338
2023/5/9 21:32,9125,0.171885,0.40414074,-0.65662766,-0.07929975,0.39920717,9.798201,0.020291384,-0.004367355,-0.39676994,0.91768336,0.22450256,0.94459534,9.256424,-0.08439636,0.03907776,-0.20082092
2023/5/9 21:32,9165,-0.2478392,0.011163741,0.24934483,-0.088112116,0.3257546,9.800842,0.017051114,-0.002320302,-0.38882035,0.9211529,-0.38601685,0.36340332,9.771774,-0.2665558,0.020965576,-0.17845154
2023/5/9 21:32,9205,-0.6381649,-0.18209732,0.51557827,-0.11763673,0.2826759,9.801868,0.01561201,1.31E-04,-0.37638447,0.926332,-0.6667328,0.11680603,10.673187,0.08816528,0.042266846,-0.076187134
2023/5/9 21:32,9245,-0.001629882,0.07779965,-0.12420654,-0.11613077,0.30424327,9.801242,0.016489057,1.47E-05,-0.3512465,0.9361378,-0.21902466,0.39453125,9.6772,-0.03753662,-0.044021606,0.011169434
2023/5/9 21:32,9285,-0.19367248,-0.011761487,-0.01356411,-0.088055946,0.29224178,9.801899,0.015538,-8.95E-04,-0.34305048,0.939188,-0.24415588,0.29995728,9.85318,-0.008773804,-0.047210693,0.012237549
2023/5/9 21:32,9326,0.47034702,0.28234476,-0.16754055,-0.11035607,0.31050518,9.801112,0.016803136,1.57E-04,-0.3259988,0.9452208,0.3053131,0.54714966,9.815475,0.071121216,0.06996155,0.029281616
2023/5/9 21:32,9365,0.39246067,0.10173243,-0.004435539,-0.09407629,0.3289022,9.800682,0.017432136,-6.57E-04,-0.31094816,0.9502668,0.29333496,0.35861206,9.757416,0.041305542,-0.10366821,-0.09855652
2023/5/9 21:32,9405,-0.2780079,-0.086835206,-0.028708458,-0.0811182,0.33918855,9.800447,0.017744781,-0.001184836,-0.2968263,0.95476586,-0.27468872,0.25985718,9.93219,-0.053512573,0.07635498,-0.11878967
2023/5/9 21:32,9445,-0.3783476,-0.014197081,-0.04463768,-0.11203472,0.3176301,9.800864,0.017147355,9.75E-04,-0.2785317,0.96027344,-0.48538208,0.28379822,9.805893,-0.040725708,0.04119873,0.013305664
2023/5/9 21:32,9485,-0.5434551,-0.08769581,0.26108837,-0.1495246,0.29472244,9.80108,0.016488979,0.003480604,-0.2584641,0.96587384,-0.6655426,0.2526703,10.139282,-0.10038757,0.16903687,0.048446655
2023/5/9 21:32,9525,0.05715631,0.121272,0.5772438,-0.1805711,0.27170536,9.801223,0.01564208,0.005663176,-0.23688546,0.97139513,-0.26271057,0.36997986,10.434967,0.014663696,0.007110596,0.13154602
2023/5/9 21:32,9565,0.53339463,0.1681321,0.2536726,-0.17968555,0.30817804,9.80016,0.017326312,0.005543377,-0.21645671,0.97612274,0.29393005,0.4699402,10.202728,0.15634155,0.010314941,0.08253479
2023/5/9 21:32,9606,0.20514558,0.20235652,-0.3437481,-0.17769076,0.37331808,9.797931,0.020750497,0.005199424,-0.191221,0.9813139,0.12155151,0.61120605,9.628128,0.13717651,0.002853394,-0.07511902
2023/5/9 21:32,9645,-0.24825287,-0.06087205,-0.003470421,-0.18576781,0.39705133,9.796848,0.021745257,0.005621041,-0.18480419,0.9825187,-0.3919983,0.34902954,9.787933,0.03277588,0.01776123,-0.07298279
2023/5/9 21:32,9685,-0.3794149,-0.019761682,-0.14955235,-0.1807679,0.4282674,9.795626,0.023082085,0.005410238,-0.16831626,0.9854479,-0.59490967,0.40231323,9.693375,0.03916931,-0.031234741,0.038864136
2023/5/9 21:32,9725,0.11212376,0.02090162,0.6496811,-0.19282116,0.44460264,9.794668,0.023903718,0.006284453,-0.15148948,0.9881498,-0.09272766,0.47413635,10.568451,0.18403625,0.02947998,0.018630981
2023/5/9 21:32,9765,-0.045866907,0.048855364,-0.6639185,-0.18308608,0.5240349,9.790927,0.027757432,0.005583542,-0.13712557,0.99014896,-0.22441101,0.5704956,9.243851,0.10308838,-0.023773193,-0.004806519
2023/5/9 21:32,9805,0.13888532,0.05615127,-0.078531265,-0.19073391,0.50185406,9.791944,0.026601149,0.006498324,-0.12324257,0.9919987,-0.048431396,0.54415894,9.649673,-0.11529541,7.17E-04,-0.008010864
2023/5/9 21:32,9846,-0.023321524,-0.1057426,0.1920309,-0.18478474,0.47183734,9.79355,0.024957934,0.006711938,-0.11029218,0.9935631,-0.30221558,0.37298584,10.023163,-0.027938843,-0.021652222,0.001586914
2023/5/9 21:32,9885,-0.1876304,-0.086122274,0.19277,-0.19005655,0.48281464,9.792913,0.025633883,0.007448973,-0.09124434,0.9954707,-0.30221558,0.40170288,10.103973,0.0892334,0.025222778,0.029281616
2023/5/9 21:32,9925,0.054320812,0.12823755,-0.25647354,-0.191402,0.5118708,9.791411,0.026874311,0.007708698,-0.0787993,0.9964984,-0.18310547,0.6285553,9.668823,0.027450562,0.020965576,0.048446655
2023/5/9 21:32,9965,0.13247634,0.1892466,-0.1336546,-0.19803004,0.5096659,9.791395,0.026544167,0.008328614,-0.0682412,0.9972809,-0.013122559,0.72612,9.708923,-0.03753662,0.010314941,-0.041030884
2023/5/9 21:32,10005,-0.12322119,-0.037169546,0.101997375,-0.21380344,0.48898834,9.792117,0.025583204,0.009298243,-0.06351534,0.99760956,-0.40516663,0.43522644,9.989044,-0.053512573,0.030548096,5.19E-04
2023/5/9 21:32,10045,-0.1367914,-0.0907121,0.08773899,-0.20749086,0.48198166,9.792601,0.025112255,0.009257293,-0.05329159,0.99822026,-0.30221558,0.39213562,9.960327,0.018920898,-0.05041504,0.004776001
2023/5/9 21:32,10086,-0.09238993,0.028259754,-0.1593771,-0.20055816,0.48612243,9.792541,0.025206484,0.009191809,-0.042990506,0.99871516,-0.30162048,0.50405884,9.740051,-0.009841919,0.022033691,0.04951477
2023/5/9 21:32,10125,0.099721074,0.08261219,-0.01756668,-0.20600036,0.4681735,9.793303,0.024208812,0.00972102,-0.032656264,0.99912614,-0.17173767,0.602829,9.833435,-0.07588196,0.002853394,0.036743164
2023/5/9 21:32,10166,0.05415739,0.10609716,0.2581463,-0.20503134,0.4546321,9.793961,0.02342619,0.009910313,-0.02344845,0.9994014,-0.1627655,0.54415894,10.126724,-0.027938843,0.027359009,0.013305664
2023/5/9 21:32,10205,-0.1394152,0.058205813,-0.056137085,-0.22403619,0.46457797,9.793077,0.023932477,0.011184338,-0.011308419,0.99958706,-0.30581665,0.5339813,9.9387665,0.043426514,-3.51E-04,0.019699097
2023/5/9 21:32,10245,-0.030751407,0.01971531,-0.009347916,-0.2413703,0.46799853,9.792502,0.023956278,0.01214195,-0.00706258,0.9996143,-0.2788849,0.4837036,9.79393,-0.04286194,0.108306885,0.043121338
2023/5/9 21:32,10286,0.13420603,0.031579614,-0.32976627,-0.25728494,0.47286698,9.7918625,0.024101885,0.013153507,0.001271901,0.99962217,-0.24536133,0.5483551,9.638306,0.09562683,-0.15374756,0.051651
2023/5/9 21:32,10325,0.4728856,0.12168348,0.101519585,-0.2170428,0.4773472,9.79262,0.023796521,0.011666623,0.01224609,0.9995737,0.3759308,0.64352417,9.893875,-0.17068481,0.13067627,-0.009063721
2023/5/9 21:32,10365,0.26708913,-0.15924275,0.39723587,-0.19127701,0.4658031,9.793714,0.024112014,0.009397181,0.015324942,0.9995476,0.046142578,0.32928467,10.384094,0.21174622,-0.29649353,-0.026107788
2023/5/9 21:32,10405,0.6051707,-0.12821758,0.38302517,-0.12924989,0.49843928,9.793122,0.025278257,0.007123882,0.020964582,0.9994352,0.42741394,0.38375854,10.184784,-0.13233948,0.12535095,0.019699097
2023/5/9 21:32,10445,0.9156264,0.36434704,0.35516357,-0.18046069,0.49981382,9.792242,0.025233036,0.009894193,0.02718521,0.9992629,0.7440491,0.852417,10.427185,0.20321655,0.05291748,-0.018661499
2023/5/9 21:32,10485,0.60211706,0.21087766,-1.1055231,-0.1467798,0.5750499,9.788675,0.029079642,0.008417013,0.03181624,0.9990352,0.4363861,0.8057251,8.750656,0.012542725,-0.08024597,-0.018661499
2023/5/9 21:32,10525,0.3265289,-0.016618848,0.1607418,-0.16482855,0.5437214,9.790178,0.027417473,0.009387584,0.03551742,0.99894875,0.30770874,0.552536,9.99205,-0.092926025,0.1882019,-0.054870605
2023/5/9 21:32,10566,-0.19643897,-0.24712259,-0.25888157,-0.21302733,0.5458793,9.789127,0.027384343,0.011978777,0.04025441,0.9987423,-0.32556152,0.30055237,9.740051,0.11053467,0.015640259,0.020751953
2023/5/9 21:32,10605,-0.5728211,-0.029230475,-0.84180737,-0.21444091,0.6045694,9.785647,0.030659003,0.01251987,0.048379384,0.99827987,-0.7768707,0.5118408,9.176224,0.1552887,0.020965576,0.087875366
2023/5/9 21:32,10645,-0.004301906,0.5590285,-1.0072346,-0.2323669,0.6329646,9.7834425,0.031423077,0.013668071,0.053768475,0.9979653,-0.23518372,1.173233,8.788956,-0.09931946,0.04333496,0.05697632
2023/5/9 21:32,10685,-0.18210116,0.2825505,0.75450516,-0.24603009,0.5614033,9.787476,0.027213912,0.014299208,0.05674215,0.99791545,-0.40039062,0.8853302,10.414017,-0.26869202,0.06889343,-0.066589355
2023/5/9 21:32,10725,-0.73003924,0.30347684,1.191803,-0.3055059,0.4749539,9.790377,0.023249974,0.017004812,0.059820484,0.99779344,-1.0097046,0.7357025,11.080215,-0.10571289,0.09126282,0.038864136
2023/5/9 21:32,10766,0.02254802,0.44408026,0.7204418,-0.310183,0.487109,9.789633,0.023793219,0.017365392,0.063379385,0.9975547,-0.32138062,0.93562317,10.661224,0.13397217,-0.013122559,0.08148193
2023/5/9 21:32,10805,-0.12865329,0.30081862,-0.15199184,-0.32549345,0.53118354,9.786842,0.025932124,0.018369442,0.06647965,0.99728155,-0.40696716,0.8907318,9.743042,0.02319336,0.07635498,-0.04849243
2023/5/9 21:32,10845,-0.35303244,0.1300109,0.5358467,-0.3389784,0.5228491,9.786833,0.02543672,0.019061536,0.06781199,0.99719167,-0.6733246,0.6560974,10.296707,-0.026885986,-0.001403809,-0.11878967
2023/5/9 21:32,10885,-0.964354,0.24714339,-0.50052357,-0.38551947,0.5285501,9.784804,0.02556618,0.021452153,0.06785191,0.99713707,-1.252121,0.7506714,9.675415,0.026382446,0.16157532,-0.16033936
2023/5/9 21:32,10926,-0.61646754,-0.029115677,-0.5216017,-0.4407513,0.5331013,9.782225,0.025595864,0.024293652,0.06835478,0.99703676,-1.0917053,0.4519806,9.305511,0.047683716,0.14346313,-0.13476562
2023/5/9 21:32,10965,-1.0616732,-0.13494682,-1.4049139,-0.54246265,0.5364677,9.776928,0.02494908,0.030157315,0.07162856,0.99666315,-1.6088562,0.42385864,8.550735,-0.116363525,0.21803284,-0.08683777
2023/5/9 21:32,11005,-1.0126569,0.2836194,-0.30393028,-0.60636884,0.44497547,9.777766,0.019473692,0.03267244,0.07889689,0.9961569,-1.6663208,0.6465149,9.426407,-0.3187561,0.023086548,0.31477356
2023/5/9 21:32,11045,0.4887265,1.3351603,0.37220192,-0.59364593,0.3677721,9.7817545,0.015873646,0.03159615,0.09051384,0.9952673,-0.24536133,1.6838074,10.208725,-0.09399414,-0.074905396,0.44792175
2023/5/9 21:32,11085,0.89906883,1.83236,-0.015336037,-0.5277622,0.3956999,9.784441,0.017447518,0.028774314,0.09805886,0.9946115,0.396286,2.1859894,9.89209,0.09881592,-0.14735413,0.19226074
2023/5/9 21:32,11125,0.545318,1.6919308,-0.64189816,-0.4675004,0.44962275,9.785176,0.020428563,0.026029775,0.100270346,0.99440986,0.08325195,2.1381073,9.228897,0.015731812,-0.09408569,5.19E-04
2023/5/9 21:32,11165,-0.023301423,1.1748347,-0.33097267,-0.44615492,0.44903424,9.7862,0.02032748,0.024683727,0.098633744,0.9946099,-0.51171875,1.6107788,9.561081,-0.067352295,-0.055740356,-0.16566467
2023/5/9 21:32,11206,-0.33793122,1.0159032,0.1039114,-0.41490915,0.43608385,9.78816,0.020111926,0.023200557,0.09587418,0.9949198,-0.7780762,1.4473724,9.945358,-0.008773804,-0.13456726,-0.13157654
2023/5/9 21:32,11245,0.13116929,1.3595073,-0.09030247,-0.35521972,0.4723682,9.788824,0.022295233,0.020292995,0.09346133,0.99516636,-0.23399353,1.801712,9.916626,0.17338562,-0.1729126,-0.16885376
2023/5/9 21:32,11285,-0.01933524,1.1859069,-1.2421865,-0.2966697,0.54914796,9.786767,0.026552219,0.017570766,0.08910674,0.9955131,-0.29682922,1.7885437,8.601608,0.049819946,-0.15586853,-0.2732544
2023/5/9 21:32,11325,-0.46410185,0.6707417,-0.41553783,-0.2742647,0.5246908,9.788762,0.025192361,0.01617969,0.08266677,0.99612737,-0.6403961,1.291153,9.273178,-0.13552856,-0.014190674,-0.3723297
2023/5/9 21:32,11365,-0.90081966,0.5812341,-0.32580853,-0.26325247,0.49122953,9.790801,0.023849905,0.015035995,0.07713231,0.99662215,-1.2090302,1.0720825,9.5473175,-0.05458069,-0.14735413,-0.30415344
2023/5/9 21:32,11405,-0.87273264,0.90573674,0.123147964,-0.21310425,0.45821586,9.793621,0.02251177,0.01255081,0.073191695,0.9969848,-1.0534058,1.3139038,9.9579315,-0.1184845,-0.1494751,-0.27964783
2023/5/9 21:32,11446,-0.61102873,1.4901477,1.4763174,-0.17841531,0.3936401,9.797123,0.018799817,0.010309847,0.06943443,0.99735606,-0.8726349,1.9004822,11.09877,-0.27401733,-0.063201904,-0.22319031
2023/5/9 21:32,11485,-0.8652468,1.3220106,3.1719017,-0.18465418,0.38671723,9.797282,0.019060373,0.010692585,0.06569566,0.9976003,-0.99235535,1.6885986,13.127258,0.28311157,0.012435913,-0.19868469
2023/5/9 21:32,11525,-0.71467006,1.234553,1.2893515,-0.18046391,0.53592086,9.790333,0.02668836,0.010940948,0.06417534,0.9975217,-0.9504547,1.7801666,11.231644,0.24902344,-0.07064819,-0.10600281
2023/5/9 21:32,11565,1.0747273,-0.51320904,1.2775421,-0.17662345,0.5822623,9.787755,0.02908658,0.010831386,0.061887812,0.9976004,0.89727783,0.34603882,11.232834,0.05621338,0.1796875,-0.379776
2023/5/9 21:32,11605,-0.44287524,-1.9239674,-0.28829384,-0.3321559,0.61794347,9.781524,0.030554572,0.018641664,0.05454853,0.99786943,-0.5075226,-1.0910797,9.978882,0.2660675,0.5003357,-0.47566223
2023/5/9 21:32,11646,-1.1624279,-2.4160752,-1.454915,-0.5036573,0.6960123,9.768945,0.03445679,0.02813622,0.048796333,0.99781764,-1.6423798,-1.6734619,8.40947,0.195755,0.23721313,-0.35847473
2023/5/9 21:32,11685,-0.45216447,-2.058504,-0.74425125,-0.59168464,0.70521915,9.763349,0.03444139,0.032098457,0.04777665,0.9977479,-1.2060394,-1.5184479,8.92543,0.026382446,0.063568115,-0.06340027
2023/5/9 21:32,11725,0.7878453,-0.9593581,0.13390636,-0.5581936,0.7152631,9.764589,0.03521167,0.029558867,0.05207577,0.99758434,0.12036133,-0.28961182,9.932785,0.0934906,-0.30607605,0.16137695
2023/5/9 21:32,11765,1.6815033,-0.46009684,0.5026827,-0.3975997,0.7611102,9.768982,0.03812105,0.021480696,0.057852928,0.9973657,1.289917,0.2730255,10.393066,0.19789124,-0.37106323,0.10171509
2023/5/9 21:32,11805,0.4774149,-0.8083968,-0.5350914,-0.2802928,0.85765105,9.765052,0.04281969,0.01695126,0.060970694,0.9970766,0.3346405,0.040786743,9.534744,0.24263,-0.074905396,0.019699097
2023/5/9 21:32,11845,-0.40772277,-0.6530806,-1.473959,-0.29488462,0.88639146,9.762056,0.044190258,0.017913178,0.06384405,0.9968201,-0.62065125,0.22692871,8.396912,-0.06523132,0.06889343,0.14006042
2023/5/9 21:32,11885,-0.29289085,-0.15414709,-0.7023697,-0.31307098,0.84211034,9.7654085,0.041759476,0.018942848,0.069792606,0.99650705,-0.73017883,0.5914459,9.10379,-0.12915039,0.030548096,0.18586731
2023/5/9 21:32,11925,0.02608934,-0.040410638,0.34134483,-0.31173012,0.7667785,9.771656,0.03781689,0.018817144,0.075438984,0.99625534,-0.3219757,0.77160645,10.139282,-0.24845886,-0.009933472,0.15498352
2023/5/9 21:32,11965,0.6649487,-0.3690595,0.8924284,-0.27562678,0.7294244,9.7755995,0.035939496,0.017072361,0.08203232,0.9958351,0.1981659,0.27122498,10.84259,0.12545776,-0.11538696,0.28601074
2023/5/9 21:32,12006,0.8013327,0.035768688,-0.6402054,-0.22364579,0.7994831,9.771448,0.039968133,0.014917932,0.09160996,0.9948807,0.6967621,0.80332947,9.456345,0.14782715,-0.057861328,0.19758606
2023/5/9 21:32,12045,-0.1407126,-0.22195005,-1.3653431,-0.20646739,0.8286189,9.769399,0.040986367,0.01467909,0.09812477,0.9942214,-0.25074768,0.6351471,8.531586,-0.016220093,0.024154663,0.1581726
2023/5/9 21:32,12085,-0.2692684,-0.14740342,-0.65556335,-0.21873274,0.76957864,9.77396,0.037114322,0.015222879,0.10510234,0.993652,-0.5093231,0.61898804,8.972107,-0.31556702,0.038009644,0.18693542
2023/5/9 21:32,12125,0.22772776,0.21560752,0.7859564,-0.23584041,0.62421966,9.783921,0.030289393,0.015537078,0.11241607,0.99307793,-0.064590454,0.8518219,10.535522,-0.29426575,0.056121826,0.20397949
2023/5/9 21:32,12165,0.115217045,0.21948224,0.2567358,-0.23643968,0.60234815,9.785277,0.029065894,0.015648142,0.11946696,0.99228925,-0.10888672,0.80633545,10.332626,0.11373901,-0.007797241,0.22955322
2023/5/9 21:32,12205,0.12595607,0.33495212,-1.133029,-0.2241435,0.6216295,9.784362,0.03002176,0.015333463,0.12573707,0.99149066,-0.10409546,0.9529724,8.677628,-0.12701416,0.012435913,0.27108765
2023/5/9 21:32,12246,0.058840543,0.39333034,0.14867687,-0.2560288,0.5467832,9.788048,0.025912,0.016645225,0.13261811,0.9906886,-0.16874695,0.9601593,9.972885,-0.16749573,0.13067627,0.2316742
2023/5/9 21:32,12285,0.19683108,0.7082555,0.041438103,-0.27975836,0.5115795,9.789302,0.023841998,0.01778013,0.13982905,0.98972887,-0.13642883,1.1977844,9.901062,-0.116363525,0.022033691,0.2881317
2023/5/9 21:32,12325,0.6571659,0.8696282,0.8072376,-0.2645161,0.47355187,9.791638,0.021895725,0.016911644,0.14766116,0.988651,0.27478027,1.3121033,10.546295,-0.07695007,-0.031234741,0.32861328
2023/5/9 21:32,12365,0.8918832,1.3148441,0.151371,-0.23833436,0.5071987,9.790625,0.024141533,0.016014148,0.15611926,0.9873133,0.6925659,1.7364807,10.202133,0.15315247,-0.008865356,0.22955322
2023/5/9 21:32,12406,0.34697735,1.2485166,-0.72209644,-0.22927025,0.5782082,9.786904,0.02761666,0.01633639,0.16124533,0.9863926,0.12275696,1.836441,9.186996,0.12652588,0.008178711,0.19758606
2023/5/9 21:32,12445,0.26942307,1.291965,-1.0726728,-0.22736084,0.6226593,9.784222,0.0294154,0.016798938,0.16609259,0.9855282,0.10479736,1.91185,8.76442,-0.031143188,0.053985596,0.17095947
2023/5/9 21:32,12485,0.13737714,0.97129613,-0.20442963,-0.25984368,0.598488,9.784921,0.027817631,0.018277135,0.17075787,0.9847507,-0.1627655,1.6059875,9.57785,-0.095062256,0.06782532,0.23487854
2023/5/9 21:32,12525,0.8430664,0.905378,0.42639542,-0.2622456,0.5958741,9.785016,0.027567508,0.018521344,0.17597292,0.9838346,0.5189972,1.5371552,10.28653,-0.027938843,0.063568115,0.21144104
2023/5/9 21:32,12565,0.73812234,0.13260746,1.4190502,-0.2919438,0.5639378,9.786068,0.025654359,0.019779865,0.17806749,0.9834849,0.6710205,1.0307922,11.037704,-0.15470886,0.13494873,-0.019729614
2023/5/9 21:32,12605,0.33387882,-0.6358726,2.5997648,-0.31684634,0.5175307,9.787858,0.023109334,0.020593908,0.17751089,0.9836319,-0.002944946,-0.109451294,12.440109,-0.011962891,0.002853394,-0.029312134
2023/5/9 21:32,12645,0.13355699,-0.98565143,2.3971481,-0.31001854,0.5191485,9.787991,0.02328703,0.020225856,0.17582509,0.9839381,-0.031677246,-0.42668152,12.387436,0.08177185,-0.028045654,-0.111343384
2023/5/9 21:32,12686,0.076411605,-1.4380624,1.2710705,-0.30972856,0.5920649,9.783859,0.026991742,0.020818872,0.17402223,0.98415154,-0.2866516,-0.87979126,11.618912,0.47698975,0.020965576,-0.029312134
2023/5/9 21:32,12725,0.4467641,-1.297751,-1.5639687,-0.2613631,0.81057155,9.769598,0.039849002,0.0196375,0.17172171,0.9841433,0.10658264,-0.52545166,8.566895,0.5579529,-0.33377075,-0.13583374
2023/5/9 21:32,12765,-0.035815448,-1.8267894,-1.4579077,-0.14520246,0.9210287,9.762223,0.045128986,0.01482666,0.16528176,0.98510176,0.019805908,-0.76187134,8.27301,0.015731812,-0.13882446,-0.40960693
2023/5/9 21:32,12805,-1.140201,-1.8472894,-0.20177269,-0.1657081,0.8661098,9.766923,0.041870266,0.015824784,0.15884332,0.9862886,-1.2275848,-1.0096741,9.575455,-0.08760071,0.1605072,-0.23170471
2023/5/9 21:32,12845,-1.1043854,-1.034452,-0.51477146,-0.2589248,0.8610009,9.765348,0.04133306,0.019934865,0.15645166,0.986619,-1.3796082,-0.20941162,9.352188,0.104156494,0.15838623,-0.10067749
2023/5/9 21:32,12885,-1.3524965,-0.90038776,-0.5934963,-0.3299356,0.8901146,9.760595,0.042272978,0.023688102,0.15498486,0.9867277,-1.6333923,-0.024459839,9.255829,0.10202026,0.120025635,-0.035705566
2023/5/9 21:32,12925,-0.54773486,-0.7125258,-0.38863468,-0.37877667,0.8956521,9.758315,0.042164028,0.026202539,0.15511894,0.9866477,-0.960022,0.18025208,9.421631,-0.07055664,0.11683655,0.010101318
2023/5/9 21:32,12966,0.114112705,-0.69820756,0.6561794,-0.42883915,0.8701396,9.758553,0.04048893,0.028512433,0.15482077,0.98670065,-0.29205322,0.21556091,10.505005,0.08816528,0.06782532,-0.07298279
2023/5/9 21:32,13005,-0.0313403,-0.62048763,-0.60905075,-0.4306459,0.940197,9.751972,0.044042565,0.029121375,0.1538659,0.98668003,-0.4416809,0.25506592,9.509018,0.195755,-0.04295349,-0.026107788
2023/5/9 21:32,13045,0.1005083,-0.48518628,-0.06272888,-0.41976577,0.95611185,9.7509,0.044944797,0.028678825,0.15343,0.9867202,-0.29682922,0.48908997,9.591019,-0.055633545,0.015640259,-0.04421997
2023/5/9 21:32,13086,-0.37969553,-0.46064645,0.09924793,-0.44299918,0.9397138,9.751465,0.043962482,0.029680649,0.1525053,0.98687816,-0.80081177,0.45976257,9.97229,0.014663696,0.0625,-0.043151855
2023/5/9 21:32,13126,-0.41827497,-0.32365197,-0.58555984,-0.45144615,0.96851647,9.74826,0.04567249,0.030157547,0.1523021,0.9868174,-0.8648529,0.6381378,9.364761,0.12225342,-0.088760376,0.015426636
2023/5/9 21:32,13165,0.33868092,0.03528571,-0.8602972,-0.39964777,1.0098187,9.746329,0.04810453,0.02766974,0.1524875,0.98674613,-0.14241028,0.978714,9.011612,0.07325745,-0.15267944,0.036743164
2023/5/9 21:32,13205,0.40486127,0.56014144,-0.8914108,-0.33210295,1.0309869,9.746649,0.04945608,0.024765275,0.15179907,0.9868626,0.07485962,1.5263824,8.912262,0.012542725,-0.121780396,-0.003738403
2023/5/9 21:32,13246,-0.045544177,1.0909166,-1.0127811,-0.2764892,1.0537499,9.745951,0.051085223,0.022025406,0.14966749,0.9871701,-0.31777954,2.1381073,8.799133,0.030639648,-0.17823792,-0.076187134
2023/5/9 21:32,13285,-0.2932813,1.2245319,-0.24402618,-0.22348934,1.0372154,9.7490835,0.050712883,0.019060398,0.14654163,0.98771983,-0.5033417,2.251831,9.426407,-0.1334076,-0.12605286,-0.18057251
2023/5/9 21:32,13325,-0.91131926,0.74471414,0.036675453,-0.20813172,1.0061667,9.752676,0.049356826,0.017770743,0.14095014,0.9886259,-1.0522003,1.7921448,9.923813,-0.10357666,-0.049346924,-0.27645874
2023/5/9 21:32,13365,-0.63511443,0.70407647,0.83757114,-0.21512274,0.9485078,9.758302,0.046467938,0.017488305,0.13633148,0.9894183,-0.9121399,1.659256,10.5199585,-0.13552856,-0.030166626,-0.18057251
2023/5/9 21:32,13406,0.16893949,1.2288487,0.21890926,-0.19108884,0.95444584,9.758223,0.04742606,0.015954675,0.13295765,0.9898578,-0.108291626,2.02977,10.300293,0.12971497,-0.11433411,-0.13583374
2023/5/9 21:32,13445,0.016516268,1.4087335,-0.6766052,-0.16817561,1.0120347,9.752839,0.050285727,0.015246256,0.1286611,0.9902955,-0.07118225,2.4170227,9.17981,0.025314331,-3.51E-04,-0.21360779
2023/5/9 21:32,13485,-0.6013001,1.2554661,0.030303001,-0.17793545,1.0114782,9.752725,0.050078742,0.015377949,0.12329521,0.99098635,-0.7277832,2.243454,9.734665,-0.050308228,-0.041885376,-0.23809814
2023/5/9 21:32,13525,-0.4187263,1.0180554,0.73707867,-0.17427611,1.027916,9.751072,0.05126326,0.015178951,0.11867981,0.9914922,-0.6984558,2.0363464,10.510391,0.06686401,0.012435913,-0.18377686
2023/5/9 21:32,13565,-0.17319681,0.71041036,1.2722874,-0.22753857,1.0025045,9.752621,0.049536962,0.01734522,0.11321641,0.9921831,-0.41773987,1.7687988,11.008987,-0.2899933,0.112579346,-0.30522156
2023/5/9 21:32,13606,-0.1114113,-0.5221084,3.7511206,-0.24555348,0.83605623,9.76786,0.041070215,0.01705738,0.107657686,0.9931929,-0.3405304,0.5022583,13.3858185,-0.33900452,-0.088760376,-0.2700653
2023/5/9 21:32,13645,-1.0271707,-1.890584,1.6716089,-0.2001178,0.859056,9.766901,0.042544425,0.014717155,0.10387656,0.99357086,-1.015686,-0.88757324,12.536484,0.43971252,-0.10900879,-0.10067749
2023/5/9 21:32,13685,-0.4152714,-2.2040186,-1.6766243,-0.22753441,1.0333294,9.749402,0.05123474,0.017141422,0.10576942,0.99292195,-0.7744751,-1.1904297,8.654282,0.49617004,0.22442627,0.16030884
2023/5/9 21:32,13725,0.43318284,-1.2841694,-2.4399204,-0.3088643,1.1686245,9.731871,0.05800037,0.022691514,0.11039782,0.9919342,-0.011917114,-0.26507568,7.307541,0.21813965,0.17436218,0.10385132
2023/5/9 21:32,13765,1.0636663,-1.1745348,-1.5827122,-0.31658328,1.1759149,9.730744,0.057362005,0.022333492,0.11114525,0.9918959,0.6596527,0.024627686,7.9821167,-0.19093323,-0.123916626,-0.06340027
2023/5/9 21:32,13806,1.4133164,-1.2599705,0.9721947,-0.2681688,1.028843,9.748844,0.049820505,0.01903933,0.1101326,0.99248487,1.1540527,-0.22677612,10.5594635,-0.32196045,-0.088760376,-0.12199402
2023/5/9 21:32,13845,1.5781227,-0.3148476,0.7499943,-0.14710249,1.0129517,9.753086,0.050586905,0.013114939,0.109089494,0.99265724,1.4485321,0.634552,10.785126,0.3161316,-0.4893036,-0.22425842
2023/5/9 21:32,13885,-0.25884718,-0.90610933,-0.7237816,-0.015888426,1.0888997,9.745996,0.055207774,0.006679634,0.10545454,0.992868,-0.17712402,0.23651123,9.133118,0.021057129,-0.08236694,-0.26153564
2023/5/9 21:32,13925,-0.75240916,-0.86920345,-0.6650343,-0.06732481,1.039149,9.751207,0.052399717,0.009006664,0.10517783,0.9930311,-0.8624573,0.21736145,9.119354,-0.13127136,0.11790466,-0.07086182
2023/5/9 21:32,13965,-0.7364984,-0.6560525,-0.5814419,-0.08484605,1.0209359,9.752993,0.05134764,0.00995783,0.108274356,0.99274415,-0.8690491,0.30114746,9.386917,0.05407715,-0.020584106,0.109176636
2023/5/9 21:32,14006,-0.1493786,-0.36692715,-1.0084038,-0.07022661,1.0131636,9.75392,0.05097303,0.009499508,0.1146382,0.9920532,-0.25134277,0.68122864,8.815292,-0.14512634,-0.03869629,0.21676636
2023/5/9 21:32,14045,0.5560495,-0.219217,0.6195278,-0.047776766,0.92651945,9.762667,0.04665129,0.008134852,0.12068819,0.9915603,0.4657135,0.65548706,10.226074,-0.2122345,0.009246826,0.24552917
2023/5/9 21:32,14085,0.874277,0.4621061,-0.33618546,-0.06001439,0.930826,9.76219,0.04740622,0.00936799,0.12977163,0.9903657,0.81288147,1.2576294,10.083023,0.2660675,0.07209778,0.1730957
2023/5/9 21:32,14125,0.2118336,0.5049745,-1.7889137,-0.030534353,0.9817049,9.757341,0.048793446,0.00787549,0.13365069,0.98979527,0.27478027,1.5988159,7.7402954,-0.27189636,-0.121780396,-0.041030884
2023/5/9 21:32,14165,0.015487999,0.24880755,1.2668581,-0.044486456,0.7960674,9.774184,0.038773026,0.008063967,0.13692887,0.98978895,0.030578613,0.97572327,10.863541,-0.4402008,0.17115784,0.0793457
2023/5/9 21:32,14206,0.62257826,1.1300846,0.23048115,-0.08171664,0.75030756,9.777563,0.037856735,0.009497483,0.14137207,0.9891868,0.5231781,1.7921448,10.369736,0.1914978,-0.03656006,0.054840088
2023/5/9 21:32,14245,-0.19332166,0.8754746,-1.065053,-0.07557548,0.8076131,9.773047,0.04024291,0.00968609,0.14228298,0.9889602,-0.2034607,1.7310944,8.751251,-0.062026978,0.09126282,-0.0932312
2023/5/9 21:32,14285,-0.37503976,0.7735048,-0.19043255,-0.13887797,0.75314516,9.7767,0.037011325,0.012536738,0.14363855,0.9888584,-0.53744507,1.5299835,9.550919,-0.16429138,0.15625,-0.004806519
2023/5/9 21:32,14325,-0.5958725,0.73720735,0.14503002,-0.18444377,0.72997075,9.777704,0.03546628,0.014763036,0.1463117,0.9884923,-0.74694824,1.4898682,10.016586,0.007217407,0.04333496,0.07827759
2023/5/9 21:32,14365,-0.16156623,0.7784381,-0.06554508,-0.19399679,0.75076157,9.775945,0.036367413,0.015585749,0.151313,0.9876937,-0.36746216,1.5431519,9.778366,0.012542725,0.044403076,0.20291138
2023/5/9 21:32,14406,0.16155383,0.8305503,0.2143631,-0.22432047,0.7597744,9.7746,0.03647185,0.017432539,0.15798539,0.9866137,-0.079559326,1.5545197,10.10936,0.040237427,0.1051178,0.27322388
2023/5/9 21:32,14445,0.55661774,1.2391484,-0.12371349,-0.21775378,0.81842226,9.770012,0.039843287,0.017853731,0.16970752,0.9845269,0.3065033,1.9860687,9.747238,0.17338562,-0.07597351,0.29133606
2023/5/9 21:32,14485,0.43788776,1.0470371,-0.346241,-0.19230105,0.89546686,9.763787,0.043275062,0.017682068,0.17525439,0.9834127,0.28196716,1.9765015,9.561691,0.12013245,0.077423096,0.22102356
2023/5/9 21:32,14525,0.24946043,0.9983467,-0.3376732,-0.21240754,0.9322305,9.759929,0.044856332,0.019443115,0.18388155,0.9817319,0.007827759,1.9220276,9.47908,-0.003448486,0.03161621,0.23381042
2023/5/9 21:32,14565,0.5371803,0.6841538,0.9489517,-0.20383869,0.90426207,9.762743,0.042801954,0.018868094,0.1896669,0.98073363,0.3065033,1.6694336,10.585205,-0.24632263,0.028411865,0.16563416
2023/5/9 21:32,14605,0.6113534,-0.23504078,2.4053392,-0.20271523,0.7949221,9.772276,0.03779465,0.01800337,0.19345546,0.9802155,0.39389038,0.70996094,12.201889,-0.22927856,0.014572144,0.05911255
2023/5/9 21:32,14646,0.26736927,-0.916973,2.6062021,-0.23176213,0.7238061,9.777156,0.033887822,0.018852105,0.19635563,0.97976565,0.03236389,-0.14237976,12.530502,-0.06629944,0.13920593,0.11343384
2023/5/9 21:32,14685,0.10280979,-0.5439276,1.0298634,-0.22819804,0.7718361,9.773565,0.036237393,0.019331349,0.20103958,0.97872174,0.017410278,0.35263062,11.153824,0.32359314,-0.19955444,0.26257324
2023/5/9 21:32,14725,0.612392,-0.10669279,-0.34008694,-0.120372415,0.9144099,9.763184,0.04440071,0.015644768,0.2061606,0.9773851,0.43460083,0.8039398,9.55809,0.35235596,-0.1643982,0.15177917
2023/5/9 21:32,14765,-0.23019573,-0.89405966,-1.7260723,-0.111349694,1.0470985,9.749952,0.051135235,0.016612198,0.20637025,0.97699565,-0.1346283,0.30952454,8.366379,0.3544922,0.06996155,-0.12731934
2023/5/9 21:32,14805,-0.9943016,-1.7085944,-2.2109022,-0.113366306,1.1345992,9.740134,0.05554247,0.017503975,0.20391214,0.9772556,-1.1378021,-0.4739685,7.4769287,0.08816528,-0.21339417,-0.14329529
2023/5/9 21:32,14845,-0.8466335,-2.0203817,-0.34598827,-0.06646079,1.0717602,9.747682,0.052917425,0.014363002,0.20140901,0.9779713,-0.8439026,-0.90911865,9.149887,-0.34007263,-0.009933472,-0.17738342
2023/5/9 21:32,14886,-1.0635377,-1.8086134,1.6087599,-0.13083573,0.90923196,9.763533,0.04338245,0.016325133,0.20044914,0.97860694,-1.1916656,-0.9264679,11.414795,-0.22927856,0.22123718,-0.03463745
2023/5/9 21:32,14925,-0.31886378,-0.8639101,0.41932583,-0.18205187,0.905765,9.763034,0.043789558,0.018606672,0.20254838,0.97811574,-0.5476227,0.006072998,10.423004,0.19042969,0.01776123,0.054840088
2023/5/9 21:32,14965,-0.34226638,-0.82821554,-0.4564829,-0.18802336,0.9601993,9.757718,0.045996852,0.019471973,0.20535372,0.9774124,-0.57995605,0.11201477,9.446167,0.10308838,-0.031234741,0.17202759
2023/5/9 21:32,15005,0.46086097,-0.42714703,-0.55208683,-0.13949259,1.00207,9.754322,0.04853068,0.017686136,0.20931256,0.9764836,0.28974915,0.5914459,9.357574,0.12225342,-0.10261536,0.10597229
2023/5/9 21:32,15045,0.040899254,-0.4085946,-0.66703224,-0.11022977,1.0157726,9.753279,0.049500473,0.016458953,0.21101353,0.9760902,-0.08135986,0.6177826,9.146896,-0.053512573,-0.049346924,0.027145386
2023/5/9 21:32,15085,-0.16305126,-0.38742197,-0.07692623,-0.115180016,0.9836882,9.75651,0.047824174,0.016410606,0.21209413,0.9759404,-0.18969727,0.60401917,9.77417,-0.07801819,0.06889343,-0.037826538
2023/5/9 21:32,15126,-0.7069043,-0.40297776,-0.3251009,-0.14929046,0.9509945,9.759289,0.045832895,0.017723586,0.21140707,0.976162,-0.74095154,0.5663147,9.514404,-0.06523132,0.047592163,-0.08576965
2023/5/9 21:32,15165,-0.8168373,-0.41499275,-0.2908821,-0.1599382,0.91574705,9.76249,0.043531325,0.017816246,0.2125524,0.97601694,-1.058197,0.4807129,9.509613,-0.15364075,-0.024841309,0.030349731
2023/5/9 21:32,15205,0.07746723,0.12805521,0.4628601,-0.17008054,0.8334931,9.769685,0.039192453,0.017672725,0.21460642,0.9757539,-0.15498352,0.87875366,10.194351,-0.19732666,0.06782532,0.010101318
2023/5/9 21:32,15245,0.035427704,0.59881204,-0.09358311,-0.19423042,0.80942154,9.771259,0.038351316,0.018689798,0.21571931,0.97552294,-0.22261047,1.3222809,9.883102,0.05621338,0.020965576,0.014358521
2023/5/9 21:32,15285,0.48805022,0.75228924,-0.6436281,-0.1751561,0.8431223,9.768769,0.040077854,0.01803205,0.2160281,0.9753976,0.27478027,1.5844421,9.18161,0.038101196,-0.053604126,-0.07937622
2023/5/9 21:32,15326,-0.05147907,0.67334604,-0.85699177,-0.14405698,0.84917307,9.768753,0.04076463,0.016445355,0.21354046,0.9759448,-0.16156006,1.5215912,8.947571,-0.03326416,-0.16546631,-0.18484497
2023/5/9 21:32,15365,-0.087462835,0.6521391,-0.13755226,-0.09141615,0.81349164,9.772424,0.03960921,0.013273377,0.20968649,0.9768759,-0.16036987,1.4856873,9.608368,-0.18986511,-0.08236694,-0.26474
2023/5/9 21:32,15405,-0.85595775,0.68054056,0.29052258,-0.09320879,0.76502633,9.77632,0.037223868,0.012680202,0.20544277,0.97787875,-0.9480591,1.4719238,10.153656,-0.02368164,-0.053604126,-0.21040344
2023/5/9 21:32,15445,-0.43562654,0.89808774,-0.48286152,-0.054190926,0.784762,9.77505,0.038644247,0.010853126,0.20325594,0.97830254,-0.5859375,1.670639,9.430008,0.045562744,-0.15586853,-0.14009094
2023/5/9 21:32,15485,-0.4917971,1.0091103,-0.66804886,-0.026340185,0.79234934,9.774552,0.039275244,0.009317206,0.20068097,0.9788247,-0.4602356,1.7759857,9.152878,-0.06097412,-0.065322876,-0.14222717
2023/5/9 21:32,15526,-0.15817204,1.2530098,-0.15128613,0.011212289,0.77923685,9.775636,0.039147798,0.006930282,0.1993437,0.9791228,-0.16874695,2.023178,9.608368,-0.04286194,-0.1878357,-0.09642029
2023/5/9 21:32,15565,9.80E-04,1.49129,0.79559326,0.08951035,0.78033864,9.775145,0.040077645,0.00293564,0.1972895,0.97952133,0.11557007,2.3009033,10.477463,-0.013031006,-0.20167542,-0.16247559
2023/5/9 21:32,15605,-0.27331236,1.6330748,1.3928146,0.14549674,0.830108,9.7703705,0.043714624,8.05E-04,0.19500236,0.97982776,-0.17771912,2.4870605,11.271744,0.2341156,-0.15267944,-0.10920715
2023/5/9 21:32,15646,-0.18563294,1.6908039,1.6615839,0.22799575,0.927211,9.760055,0.04868788,-0.002269998,0.19306672,0.97997427,-0.0256958,2.5612793,11.341782,0.06047058,-0.25813293,-0.14968872
2023/5/9 21:32,15685,0.025108933,1.2053359,3.1704597,0.29343215,0.93483096,9.757581,0.04969531,-0.005677629,0.18900818,0.9807008,0.40646362,2.2631989,13.020706,0.008270264,-0.09729004,-0.35101318
2023/5/9 21:32,15725,-1.0422072,-0.7292756,2.0885344,0.29297784,1.0050561,9.75061,0.053191528,-0.00527895,0.18341252,0.9815817,-0.64160156,0.4220581,12.185135,0.35235596,-0.023773193,-0.30947876
2023/5/9 21:32,15765,-1.3209815,-2.238231,-0.79025173,0.23152304,1.1784773,9.732829,0.061345678,-7.07E-04,0.18111463,0.9815466,-1.015091,-0.97076416,9.483871,0.55262756,0.2627716,-0.11985779
2023/5/9 21:32,15805,-1.0655334,-2.3065457,-2.615509,0.10951704,1.3598267,9.711295,0.06935088,0.00722349,0.18266374,0.9806999,-1.0887146,-0.9911194,7.3458557,0.43118286,0.20098877,0.16030884
2023/5/9 21:32,15845,0.5922045,-1.7520658,-1.8027649,0.10238818,1.4112372,9.704036,0.07183998,0.008419433,0.18747285,0.979603,0.47709656,-0.42189026,7.58049,-0.18347168,-0.025909424,0.22955322
2023/5/9 21:32,15885,1.321209,-1.2617004,1.4744072,0.08256547,1.2555778,9.72559,0.062776834,0.008454883,0.19376542,0.9790008,1.3545685,-0.06515503,10.814453,-0.35498047,0.19673157,0.22102356
2023/5/9 21:32,15926,1.0880765,-0.9743779,0.5089865,0.05578439,1.2463614,9.726965,0.06392546,0.009935736,0.19837433,0.97798896,1.2085266,0.3137207,10.707916,0.40348816,0.004989624,0.16242981
2023/5/9 21:32,15965,0.08469394,-1.0417418,-1.8908968,0.118017726,1.3988818,9.7056465,0.07124293,0.008611646,0.202515,0.9766463,0.2263031,0.34065247,8.0012665,0.22132874,-0.1409607,0.24446106
2023/5/9 21:32,16005,-0.21581155,-0.605327,-1.6047058,0.14473535,1.3950841,9.7058325,0.07078118,0.00749351,0.20764026,0.97561234,-0.019104004,0.7752075,8.05394,-0.2079773,0.027359009,0.24127197
2023/5/9 21:32,16046,-0.44134235,-0.35948455,-0.30903912,0.14334673,1.2876691,9.720687,0.06584097,0.006920243,0.21345165,0.9747079,-0.3123932,0.93022156,9.469513,-0.22076416,0.023086548,0.321167
2023/5/9 21:32,16085,-0.059943363,-0.061323404,0.2535534,0.14767389,1.2171806,9.7297,0.062311158,0.006380766,0.22050834,0.9733718,0.07846069,1.1582794,10.013596,-0.13020325,0.059310913,0.34672546
2023/5/9 21:32,16125,-0.05397828,0.017233849,0.3822279,0.13417763,1.1867048,9.733659,0.060590245,0.007095134,0.22673514,0.97204405,0.06588745,1.2456665,10.193161,-0.031143188,0.09553528,0.37123108
2023/5/9 21:32,16165,-0.006812498,0.109998465,0.39013577,0.116119385,1.1758764,9.735205,0.05975942,0.008455542,0.23629203,0.96980584,0.10838318,1.2666168,10.2153015,0.014663696,0.12322998,0.48095703
2023/5/9 21:32,16205,-0.3726498,0.2773472,-0.6966171,0.08149911,1.2097962,9.731399,0.060915682,0.011224555,0.24643004,0.9671792,-0.21842957,1.4689178,9.296524,0.12545776,0.15092468,0.562973
2023/5/9 21:32,16246,-0.6116723,0.2853726,-1.1490173,0.049057335,1.2361217,9.728308,0.06145339,0.014203596,0.2597387,0.9636169,-0.52667236,1.5431519,8.606995,-0.046051025,0.15625,0.6535187
2023/5/9 21:32,16285,-0.6070371,0.1363765,-0.16757965,-0.004008449,1.1904006,9.734132,0.057953767,0.017207844,0.2734357,0.95998865,-0.5572052,1.3976898,9.435394,-0.14619446,0.27236938,0.7824249
2023/5/9 21:32,16325,-0.32226035,0.15156615,0.05531025,-0.06815195,1.1585996,9.73773,0.05556401,0.020746414,0.28958902,0.9553117,-0.47999573,1.3031311,9.908844,8.24E-04,0.20631409,0.9432831
2023/5/9 21:32,16365,0.36707488,0.43622124,-0.15774632,-0.10483356,1.1890517,9.733732,0.056138832,0.02379465,0.30730432,0.9496559,0.21372986,1.6179657,9.707733,0.07965088,0.23295593,0.99653625
2023/5/9 21:32,16405,0.72362584,0.608094,-0.11764717,-0.14753039,1.213237,9.730195,0.056150556,0.027299939,0.32485846,0.94369954,0.53993225,1.8190765,9.559296,0.010406494,0.25105286,0.98269653
2023/5/9 21:32,16445,0.8481735,0.64659,0.2177763,-0.20294932,1.2302375,9.727061,0.055503704,0.031261146,0.34168193,0.93765426,0.6506653,1.8938904,10.014786,0.022125244,0.3139038,0.96458435
2023/5/9 21:32,16486,0.4718829,0.72192013,0.27570534,-0.26133195,1.2596726,9.7219,0.05527564,0.03557689,0.35834208,0.9312732,0.19277954,1.9495544,10.068054,0.053009033,0.27236938,1.0338287
2023/5/9 21:32,16525,0.27633092,0.8061724,0.29174423,-0.3051028,1.3077763,9.71427,0.056016993,0.03965133,0.3763116,0.92394775,0.012619019,2.1183472,10.080032,0.12545776,0.24679565,1.1552582
2023/5/9 21:32,16565,0.30263454,0.88536906,0.43056393,-0.30879897,1.4033067,9.700812,0.060238987,0.043427,0.39945424,0.9137405,-0.066986084,2.3284454,10.171005,0.27565002,0.14772034,1.3193207
2023/5/9 21:32,16605,-0.52188003,0.1770736,-0.28612614,-0.30545515,1.5431513,9.679658,0.065631546,0.04774341,0.41992834,0.90392107,-0.5757599,1.9016724,9.585632,0.23304749,0.19459534,1.3001404
2023/5/9 21:32,16645,-0.78129077,-1.1147195,0.28429604,-0.23157597,1.5647265,9.678244,0.066545844,0.046028074,0.44087112,0.89391595,-1.0605774,0.55374146,9.942963,-0.27294922,-0.25920105,1.3523407
2023/5/9 21:32,16685,-0.89501894,-2.6830397,3.529542,-0.061763242,1.3894588,9.707522,0.06047691,0.034473687,0.46326068,0.8834838,-0.9618225,-1.100647,13.155975,-0.50730896,-0.096221924,1.3651276
2023/5/9 21:32,16726,-1.3741404,-2.9312677,2.388319,-0.038233206,1.2826519,9.722332,0.05619156,0.03378703,0.48848754,0.87010396,-1.4113312,-1.7231445,12.589752,0.2852478,0.14239502,1.6697845
2023/5/9 21:32,16765,-0.13403402,-1.9647835,-0.45071793,0.079355724,1.4723107,9.695174,0.066485316,0.035544686,0.51677966,0.8527925,-0.19448853,-0.6613159,9.561081,0.72732544,-0.18995667,1.7763062
2023/5/9 21:32,16805,0.33249938,-0.77652085,-2.6975994,0.22050558,1.6886938,9.657643,0.07871675,0.037428584,0.54066646,0.8367094,0.5046234,0.82188416,7.133362,0.29696655,0.075286865,1.3022766
2023/5/9 21:32,16845,-0.5389862,-1.0598063,-1.4730034,0.17894638,1.6529651,9.664681,0.07527695,0.039645422,0.5564829,0.8264916,-0.28904724,0.65190125,8.186218,-0.34432983,0.53974915,0.86657715
2023/5/9 21:32,16885,-1.4650944,-0.912959,-0.067302704,-0.006947351,1.5144951,9.688996,0.062275138,0.045141168,0.5705395,0.81766057,-1.3413086,0.62976074,9.640701,-0.21116638,0.51524353,0.79307556
2023/5/9 21:32,16925,-1.7679871,-0.66915095,-0.69544506,-0.12821631,1.4644492,9.695841,0.057019666,0.0489739,0.58126104,0.8102382,-1.9188995,0.7404938,9.166046,-0.090789795,0.31922913,0.97309875
2023/5/9 21:32,16966,-0.45943242,-0.24890554,0.24576378,-0.19918446,1.3847353,9.70635,0.04958233,0.0505993,0.5986495,0.7978722,-0.8313446,1.1463013,9.89328,-0.32089233,0.35758972,1.0753632
2023/5/9 21:32,17005,-0.15285572,-0.2518463,0.8666601,-0.31123385,1.270883,9.71897,0.040546834,0.05273627,0.61228776,0.78783154,-0.45845032,1.0702972,10.581619,-0.24099731,0.4577179,0.88468933
2023/5/9 21:32,17045,-0.7897798,-0.5185422,0.11833477,-0.44479808,1.2427487,9.717414,0.03530408,0.057475597,0.6244553,0.7781425,-1.1707153,0.70936584,10.050705,0.047683716,0.35758972,0.9251709
2023/5/9 21:32,17085,-0.8671578,-0.5527252,-0.9041996,-0.5263085,1.251034,9.7122755,0.032130167,0.061476883,0.63575816,0.7687651,-1.4382629,0.6956024,8.858994,-0.12487793,0.25105286,1.0434113
2023/5/9 21:32,17125,-0.2910154,-0.4365642,0.07648754,-0.5689572,1.188978,9.717665,0.027303018,0.061575506,0.64816934,0.7585114,-0.8415222,0.7763977,9.844208,-0.22608948,0.27130127,1.0529938
2023/5/9 21:32,17165,-0.3410254,-0.14222848,-0.035290718,-0.63178855,1.1359047,9.720131,0.022208404,0.06259412,0.6596238,0.7486556,-0.96720886,0.99786377,9.753815,-0.16003418,0.23400879,0.9848175
2023/5/9 21:32,17206,-0.20785773,-0.09397924,-0.088134766,-0.6607451,1.1221966,9.719798,0.019759964,0.06354336,0.6707031,0.73873484,-0.93907166,0.9918823,9.828644,-0.029006958,0.13601685,1.024231
2023/5/9 21:32,17245,-0.043774843,0.029406905,-0.24536419,-0.64914143,1.1328659,9.719343,0.019668426,0.06375427,0.6810103,0.729228,-0.6936798,1.1451111,9.450363,-0.05458069,0.03907776,0.94007874
2023/5/9 21:32,17285,0.02142638,0.019080281,0.17896461,-0.6077477,1.1345066,9.721827,0.020540245,0.062271126,0.6918496,0.7190581,-0.65057373,1.1163788,9.886108,-0.053512573,-0.063201904,0.9059906
2023/5/9 21:32,17325,0.3312453,0.20670283,0.5788593,-0.54038376,1.1346618,9.725786,0.022276059,0.060104217,0.69950193,0.71175015,-0.18969727,1.3061218,10.327835,-0.030075073,-0.051483154,0.7483368
2023/5/9 21:32,17366,0.114920914,0.2649449,0.25782967,-0.48234057,1.1684278,9.72484,0.024832532,0.059619684,0.7050897,0.7061709,-0.37045288,1.4132538,10.099182,0.10520935,-0.08024597,0.65779114
2023/5/9 21:32,17405,0.37935805,0.4538827,-0.116835594,-0.41032767,1.2302946,9.720514,0.02932369,0.05942928,0.70914763,0.7019387,-0.055023193,1.6365204,9.701752,0.12545776,-0.11752319,0.5352783
2023/5/9 21:32,17445,0.16319898,0.3928641,-0.2688303,-0.33592045,1.2814267,9.7167635,0.033738494,0.058691263,0.7106173,0.7003143,-0.15019226,1.6826019,9.514999,0.07858276,-0.13456726,0.3722992
2023/5/9 21:32,17485,-0.13364792,0.32870197,-0.19857979,-0.25839058,1.3165039,9.714445,0.037870817,0.057157345,0.7099637,0.70089257,-0.38482666,1.6826019,9.559296,0.05407715,-0.19316101,0.2828064
2023/5/9 21:32,17525,0.04635437,0.4003334,0.2462759,-0.17466152,1.3473449,9.712083,0.042174887,0.055162463,0.70802635,0.7027639,-0.1346283,1.7173157,10.051895,0.117996216,-0.19422913,0.2082367
2023/5/9 21:32,17565,0.0780578,0.5950166,0.33538342,-0.07090005,1.4115341,9.704274,0.048522558,0.053528473,0.70443106,0.7060858,-0.11367798,1.9543457,10.020172,0.16699219,-0.2943573,0.1219635
2023/5/9 21:32,17606,0.30338624,0.40866423,1.093338,0.031592272,1.4563161,9.697864,0.054287385,0.05098546,0.6982948,0.7119254,0.32206726,2.0489197,10.688751,-0.036468506,-0.1643982,-0.10281372
2023/5/9 21:32,17645,-0.09311374,-0.70637906,3.0184307,0.053115286,1.3781184,9.709189,0.052675195,0.046844926,0.6911049,0.7193086,0.064086914,0.8817444,12.319809,-0.3848114,0.025222778,-0.26686096
2023/5/9 21:32,17685,-0.84040713,-1.9732482,4.4100647,-0.06275356,1.2755303,9.723141,0.044638682,0.04842232,0.686589,0.7240568,-0.8498993,-0.6475525,14.541031,0.32040405,0.46730042,0.005844116
2023/5/9 21:32,17725,-0.55018187,-2.5487266,-0.024414062,-0.18127857,1.5155854,9.687132,0.051312134,0.061808642,0.68624663,0.7229193,-0.81936646,-1.0000916,10.233856,0.9819336,0.1285553,0.2987976
2023/5/9 21:32,17766,-0.17715612,-2.7010667,-2.2981644,-0.24328965,1.84905,9.62768,0.05980487,0.07448721,0.6882728,0.71913534,-0.42492676,-0.91929626,7.548767,0.55262756,0.30325317,0.42022705
2023/5/9 21:32,17805,0.6602901,-2.3153362,-1.8440704,-0.33423337,1.9382324,9.607389,0.059358854,0.08146164,0.69282013,0.7140314,0.24664307,-0.4458313,7.8193054,0.11373901,0.28727722,0.47668457
2023/5/9 21:32,17845,1.0818487,-2.1967783,-1.0467424,-0.34156662,1.9224707,9.610298,0.058008324,0.081524305,0.6972896,0.7097718,0.71232605,-0.19923401,8.5351715,-0.10783386,0.06463623,0.40318298
2023/5/9 21:32,17885,0.7849219,-2.0823789,-0.2608137,-0.35750943,1.8612952,9.621754,0.05475357,0.08018177,0.7012973,0.7062259,0.48905945,-0.2962036,9.445572,-0.13552856,0.22761536,0.4234314
2023/5/9 21:32,17925,0.8857603,-1.3900262,-0.27703476,-0.36962932,1.8007159,9.632817,0.05152548,0.07879148,0.7066343,0.7012881,0.3753357,0.3316803,9.370148,-0.08227539,-0.10366821,0.6087799
2023/5/9 21:32,17965,1.725111,-1.2620606,0.10091877,-0.20681302,1.7859795,9.6404295,0.05638136,0.072773665,0.71177864,0.696345,1.4521332,0.55493164,9.77597,-0.04286194,-0.27624512,0.4276886
2023/5/9 21:32,18006,0.6034658,-1.4585868,0.29831696,-0.14032155,1.7343074,9.651055,0.05651948,0.06846047,0.71536154,0.69309205,0.5369415,0.25985718,9.976486,-0.09399414,0.02947998,0.38934326
2023/5/9 21:32,18045,0.5795023,-1.2303413,-0.98156834,-0.082402445,1.7303778,9.65243,0.058983065,0.066207185,0.71688783,0.6915269,0.4471588,0.5489502,8.834442,0.02319336,-0.20167542,0.43727112
2023/5/9 21:32,18085,0.7761286,-1.2107635,-0.33743382,0.044393852,1.6585032,9.665288,0.06066944,0.059386063,0.71578574,0.69314015,0.76438904,0.56451416,9.187592,-0.30917358,-0.12498474,0.39360046
2023/5/9 21:32,18126,0.9411485,-0.5958984,0.7008772,0.1067971,1.5394219,9.68448,0.058819048,0.05262358,0.714511,0.69515836,1.0014191,0.88414,10.333817,-0.20265198,-0.09301758,0.44154358
2023/5/9 21:32,18165,1.3896586,0.07276249,0.5072832,0.20064919,1.5034566,9.68864,0.06119137,0.047670316,0.71136475,0.6985294,1.6029663,1.5209961,10.353561,0.014663696,-0.15480042,0.307312
2023/5/9 21:32,18205,0.9303229,-0.05467093,-0.23821926,0.26154703,1.5019337,9.687424,0.06380216,0.044812363,0.70447767,0.7054306,1.2468262,1.5269775,9.553909,-0.029006958,-0.035491943,0.1581726
2023/5/9 21:32,18245,0.7973957,0.05795443,-0.57263184,0.28491053,1.4911436,9.688432,0.06482685,0.04271949,0.695074,0.71473396,1.087616,1.5156097,9.2109375,-0.040725708,-0.020584106,0.098526
2023/5/9 21:32,18286,0.54898775,0.03416443,-0.22932339,0.29127496,1.4611738,9.692808,0.06437835,0.040231626,0.682716,0.72672945,0.92840576,1.552124,9.464722,-0.10357666,0.0625,-0.017593384
2023/5/9 21:32,18325,0.305837,0.069624424,-0.51424026,0.26262772,1.426982,9.698719,0.06315982,0.038907975,0.6680928,0.74037087,0.60398865,1.4814911,9.314484,-0.090789795,0.057174683,-5.49E-04
2023/5/9 21:32,18365,0.32861218,0.17100322,0.13550091,0.25580925,1.3883277,9.704508,0.062107258,0.036402207,0.6520545,0.7547467,0.56806946,1.4892731,9.75502,-0.069488525,0.03161621,0.071884155
2023/5/9 21:32,18406,0.4760744,0.5150231,-0.075068474,0.24481258,1.3858626,9.705145,0.06264585,0.035366945,0.63395995,0.7700126,0.71292114,1.8555908,9.75322,0.024261475,0.057174683,0.052719116
2023/5/9 21:32,18445,0.200199,0.61700654,-0.42473698,0.21741287,1.3989658,9.7039175,0.06313254,0.03551323,0.6131803,0.78661495,0.44117737,2.0183868,9.350998,0.028518677,0.14453125,0.06549072
2023/5/9 21:32,18486,0.2274949,0.6536342,-0.7924595,0.1760059,1.4099882,9.703162,0.06344166,0.035378095,0.589908,0.80419654,0.34361267,2.0680695,8.858994,-0.030075073,0.058242798,0.13687134
2023/5/9 21:32,18525,0.5418527,0.6993754,0.10647011,0.1420183,1.3987824,9.70534,0.06307079,0.034459427,0.56419307,0.8225089,0.77397156,2.153061,9.81308,-0.02368164,0.22335815,0.120895386
2023/5/9 21:32,18565,0.2357493,0.7559674,-0.8588371,0.06748468,1.4372572,9.700521,0.0638682,0.03649505,0.5348518,0.8417378,0.33164978,2.1422882,9.039154,0.14889526,0.16264343,0.18054199
2023/5/9 21:32,18605,0.45633408,0.79838085,-0.5211477,0.036492467,1.4947622,9.691994,0.06696726,0.036894985,0.50230944,0.861301,0.51000977,2.1746216,8.973312,0.12545776,0.08274841,0.24659729
2023/5/9 21:32,18645,0.68478227,0.79630363,0.3669672,0.009261539,1.5520933,9.683043,0.07033132,0.03682054,0.46761012,0.88036275,0.5237732,2.3595734,10.063278,0.13504028,0.20205688,0.40318298
2023/5/9 21:32,18686,1.5724897,1.1124396,1.8818169,-6.33E-04,1.5989836,9.675414,0.07419622,0.035009056,0.42998692,0.8990998,1.392868,2.738449,11.259781,0.082839966,-0.11433411,0.28068542
2023/5/9 21:32,18725,0.55026793,-0.8512745,3.445382,0.09044465,1.600497,9.674741,0.07705704,0.026646517,0.3811354,0.9209169,0.8912811,1.2354889,12.985397,-0.16429138,-0.08343506,-0.11239624
2023/5/9 21:32,18765,-0.5037142,-2.4127197,3.5842009,0.020500168,1.4992267,9.691351,0.07150437,0.026317801,0.3426281,0.9363763,-0.41833496,-0.7983856,13.537857,-0.10038757,0.48008728,-0.023986816
2023/5/9 21:32,18805,-0.8337692,-2.820328,0.86534595,-0.18902759,1.5354917,9.683848,0.07135202,0.03420574,0.31787124,0.9448263,-0.9606323,-1.2514801,10.890472,0.39816284,0.3980713,0.010101318
2023/5/9 21:32,18845,-0.6770619,-2.8993444,-1.2824278,-0.3157469,1.640635,9.663281,0.07544957,0.040213592,0.29401714,0.95196855,-1.1300201,-1.2125854,8.52919,0.21174622,0.21803284,0.2593689
2023/5/9 21:32,18886,0.29903838,-2.579103,-0.6438503,-0.37733117,1.6582496,9.658065,0.07642695,0.041649286,0.27073094,0.95871216,-0.06399536,-0.89775085,9.076263,0.03916931,0.2073822,0.11236572
2023/5/9 21:32,18925,0.62865543,-2.2085598,0.09915352,-0.4043592,1.6854017,9.652269,0.07859816,0.041152928,0.2434066,0.96585816,0.09642029,-0.72535706,9.858566,0.27778625,0.019897461,0.030349731
2023/5/9 21:32,18965,-0.7036428,-1.8852631,-1.2007446,-0.46143234,1.7852124,9.631744,0.0843771,0.042405866,0.21022168,0.97308224,-0.81936646,0.025222778,8.961945,0.24156189,0.24465942,0.07720947
2023/5/9 21:32,19005,0.46283668,-1.0592875,-0.9916725,-0.4997873,1.8251836,9.622334,0.088319,0.040020738,0.15795131,0.98267466,-0.46383667,0.56510925,8.473526,0.027450562,0.02947998,0.307312
2023/5/9 21:32,19045,1.1063936,-0.59971416,-0.86419296,-0.51199186,1.8118819,9.624206,0.09051973,0.033290498,0.07658816,0.9923871,0.53993225,1.2103577,8.905075,-0.12382507,0.098724365,0.10810852
2023/5/9 21:32,19085,1.3554149,-0.1483928,-0.049236298,-0.5259524,1.7699187,9.631259,0.09073463,0.02610325,-0.010642381,0.99547607,0.937973,1.6077881,9.607178,-0.06629944,0.05505371,-0.16352844
2023/5/9 21:32,19126,0.27546287,-0.19096291,-0.3375864,-0.5340085,1.7427062,9.635777,0.091253,0.018543325,-0.093596324,0.99124604,-0.27409363,1.5539246,9.301315,-0.04498291,-0.14735413,-0.12199402
2023/5/9 21:32,19165,0.35127962,0.060320854,0.08707523,-0.4698801,1.7428863,9.639085,0.09161857,0.01222766,-0.12973006,0.9872318,0.002441406,1.8178864,9.836426,0.059402466,-0.13031006,-0.2775116
2023/5/9 21:32,19205,-0.3824067,-0.20316195,-0.76691246,-0.47173688,1.7435505,9.638873,0.09202626,0.009240918,-0.16271739,0.9823283,-0.88760376,1.5413513,8.963135,-0.034332275,-0.03656006,-0.27539062
2023/5/9 21:32,19245,-0.44007546,-0.42703605,-0.36414433,-0.47124478,1.7152816,9.643969,0.09081911,0.006808354,-0.19129235,0.97729874,-0.8714447,1.3551941,9.304306,-0.062026978,-0.032302856,-0.31266785
2023/5/9 21:32,19285,-0.8679502,-0.44234264,-0.66837597,-0.5022134,1.6773505,9.649076,0.089498796,0.004900957,-0.23307651,0.9683188,-1.3640442,1.239685,9.030167,-0.09825134,-0.004608154,-0.16140747
2023/5/9 21:32,19325,-0.26883006,-0.094350696,-0.014695168,-0.48366112,1.619136,9.659962,0.085938655,0.001506422,-0.2676506,0.95967466,-0.85588074,1.5036469,9.5078125,-0.18986511,-0.11112976,-0.09109497
2023/5/9 21:32,19366,-0.005270779,-0.081079006,0.7334976,-0.4567733,1.5523489,9.672226,0.08251968,-0.001532861,-0.29719815,0.951242,-0.48597717,1.4437866,10.409836,-0.08439636,-0.09194946,-0.016525269
2023/5/9 21:32,19405,0.4920061,0.37028718,-0.27924824,-0.4016739,1.568472,9.67207,0.08271162,-0.007111673,-0.32247335,0.9429312,0.02458191,1.8687592,9.644287,0.117996216,-0.19741821,-0.010131836
2023/5/9 21:32,19445,0.7321601,0.79143167,-0.84052086,-0.32095397,1.5855435,9.672302,0.08131731,-0.012958266,-0.34514838,0.93492895,0.39927673,2.3685455,8.780579,-0.17282104,-0.17184448,-0.14968872
2023/5/9 21:32,19485,0.41722843,0.7000097,0.4181671,-0.27960575,1.4637077,9.692768,0.074858576,-0.014231166,-0.36670765,0.9272104,0.23168945,2.2428436,10.081223,-0.36669922,-0.03869629,-0.3297119
2023/5/9 21:32,19525,-0.13984308,0.56366885,0.9939003,-0.29035518,1.3490026,9.709083,0.06932686,-0.01297603,-0.38572124,0.9199155,-0.42611694,1.9232178,10.720474,-0.21009827,-0.06213379,-0.28816223
2023/5/9 21:32,19565,-7.89E-04,0.8820728,0.92695713,-0.23529418,1.3198844,9.714573,0.066626616,-0.015985047,-0.39939633,0.9142144,-0.3117981,2.1752167,10.655243,0.045562744,-0.21659851,-0.19442749
2023/5/9 21:32,19605,0.08749756,1.337557,-0.09004116,-0.18596432,1.3840113,9.706716,0.06840392,-0.020400347,-0.40981603,0.90937096,-0.0879364,2.68219,9.79332,0.22984314,-0.12710571,-0.23490906
2023/5/9 21:32,19646,-0.5882468,0.73910284,-0.35800552,-0.15150136,1.5018723,9.689779,0.07295709,-0.02521984,-0.41866633,0.9048534,-0.64219666,2.437378,9.483871,0.32040405,-0.13243103,-0.28923035
2023/5/9 21:32,19685,-0.24251047,-0.22601748,-0.1151104,-0.10728967,1.5753683,9.678693,0.07518254,-0.029522935,-0.426515,0.90086675,-0.5997009,1.5802612,9.362961,-0.09399414,-0.21659851,-0.26474
2023/5/9 21:32,19725,0.7919961,-1.980222,3.7640162,-0.05591453,1.4082446,9.70485,0.064583294,-0.028264124,-0.4375387,0.8964318,0.84939575,-0.17349243,12.829178,-0.5616455,-0.039764404,-0.5012207
2023/5/9 21:32,19765,-0.6976307,-3.3502374,3.082796,-0.14822368,1.2770978,9.722009,0.06229367,-0.021880817,-0.448995,0.8910916,-0.7158203,-2.0427704,13.3116,0.17126465,0.32669067,-0.27645874
2023/5/9 21:32,19805,-0.16128519,-2.9517252,-0.32141018,-0.22360732,1.3838464,9.705944,0.06910138,-0.0224458,-0.45225358,0.88892514,-0.47399902,-1.6596985,9.773575,0.47912598,-0.020584106,0.21783447
2023/5/9 21:32,19846,1.0884866,-1.7825948,-1.7106237,-0.14397375,1.5381402,9.684203,0.073510215,-0.028971128,-0.4503584,0.8893449,0.7500305,-0.41111755,8.119186,0.29803467,-0.23364258,0.38827515
2023/5/9 21:32,19885,1.9328778,-0.89636374,-1.850913,-0.011056983,1.5946488,9.676123,0.07303875,-0.03633682,-0.4501143,0.8892368,1.97406,0.6746521,7.9294434,0.017868042,-0.21659851,0.11450195
2023/5/9 21:32,19925,1.3091632,-0.62512755,-0.9020939,0.02223118,1.5524311,9.682966,0.07011307,-0.037285954,-0.45539907,0.8867388,1.3719177,0.9433899,8.887726,-0.09825134,0.0859375,-0.11453247
2023/5/9 21:32,19965,0.05611686,-0.6175672,-1.2071543,0.017062215,1.5267742,9.687057,0.06876647,-0.036996894,-0.46250308,0.8831723,0.088027954,0.9643402,8.543549,-0.038589478,-0.11538696,-0.1166687
2023/5/9 21:32,20005,-0.35047245,-0.731768,-0.92399216,0.04865336,1.48506,9.693432,0.065898545,-0.03781428,-0.4676822,0.88062525,-0.3333435,0.7835846,8.793152,-0.21862793,-0.028045654,-0.038894653
2023/5/9 21:32,20045,-0.059335448,-0.91024053,0.6725817,0.039187245,1.3214637,9.717129,0.05859364,-0.033632156,-0.47080818,0.879645,-0.03227234,0.4005127,10.068665,-0.5637665,0.075286865,0.014358521
2023/5/9 21:32,20086,-0.16595347,-0.8538741,2.0927668,-0.013782289,1.1307168,9.741236,0.050918814,-0.025982551,-0.4716665,0.8799221,-0.011322022,0.21257019,11.9427185,-0.23460388,0.19673157,0.11769104
2023/5/9 21:32,20125,0.32529348,-0.29962814,0.11292648,-0.040078264,1.1334002,9.740851,0.052508425,-0.02577954,-0.46723858,0.8821941,0.06529236,0.7117615,10.290115,0.24369812,-0.049346924,0.39892578
2023/5/9 21:32,20165,1.1382719,0.66862345,-1.293767,0.019584138,1.2353625,9.728509,0.055526733,-0.030014707,-0.460596,0.88536274,1.1157379,1.8196716,8.578873,0.14569092,-0.031234741,0.2977295
2023/5/9 21:32,20205,1.0642098,0.76223505,-1.6665392,0.026879225,1.2518184,9.726388,0.056101393,-0.030316593,-0.4574422,0.8869499,1.174408,2.0441284,8.148514,-0.11103821,0.09553528,0.044189453
2023/5/9 21:32,20245,0.19263068,0.4385898,-0.83233356,-0.019040665,1.1768193,9.7357645,0.05385209,-0.02672242,-0.4581052,0.8868627,0.27297974,1.7011566,8.829666,-0.24739075,0.15518188,-0.052749634
2023/5/9 21:32,20285,-0.23638847,0.31359565,-0.1752739,-0.07346533,1.1088463,9.743483,0.052038524,-0.02264176,-0.45797536,0.8871516,-0.3117981,1.4342041,9.612564,-0.08972168,0.112579346,0.10171509
2023/5/9 21:32,20325,-0.17561859,0.4991604,-0.55151176,-0.111979455,1.0883142,9.745431,0.052066125,-0.020259332,-0.4553923,0.88853616,-0.25254822,1.5934296,9.185196,-0.09931946,0.12748718,0.18693542
2023/5/9 21:32,20366,0.046708494,0.3917464,0.13370037,-0.16005194,1.0516427,9.748786,0.051596135,-0.01697398,-0.45120144,0.89076763,-0.1346283,1.4874725,9.868744,-0.07267761,0.15411377,0.30838013
2023/5/9 21:32,20405,0.70893145,0.60669696,0.30321503,-0.19155864,1.056291,9.747714,0.05289198,-0.015178589,-0.44429505,0.894189,0.46272278,1.5862427,10.075836,0.05088806,0.122161865,0.3488617
2023/5/9 21:32,20445,0.9061396,0.85203075,0.14508915,-0.22849199,1.095706,9.742566,0.055866767,-0.013888792,-0.43791643,0.89717066,0.6578522,1.920227,9.977081,0.10948181,0.21057129,0.36802673
2023/5/9 21:32,20485,1.0744996,1.2365402,0.122816086,-0.26563343,1.1618301,9.73396,0.059856176,-0.013660299,-0.43152446,0.9000096,0.79611206,2.3553772,9.897476,0.17338562,0.06889343,0.40745544
2023/5/9 21:32,20525,1.6555744,1.3119533,1.305851,-0.21908198,1.2512146,9.724035,0.06290047,-0.017923836,-0.42497712,0.9028382,1.2588043,2.5505066,10.912018,0.2106781,-0.15586853,0.42129517
2023/5/9 21:32,20565,1.7296364,0.36557138,2.7448235,-0.15572652,1.3177596,9.716463,0.06436197,-0.021349946,-0.42308474,0.90354913,1.7549896,1.8873138,12.417969,-0.005569458,0.12962341,-0.028244019
2023/5/9 21:32,20605,-0.73141396,-2.0824523,4.034274,-0.22669347,1.2385094,9.725487,0.06213292,-0.016663851,-0.4278215,0.90157115,-0.88520813,-0.7558899,13.816177,-0.19519043,0.12641907,-0.13476562
2023/5/9 21:32,20646,-1.8685653,-3.297267,3.081644,-0.28802228,1.2019435,9.728451,0.061721545,-0.01332253,-0.43210417,0.89961046,-2.1236115,-1.9769287,13.277481,0.2618103,0.21803284,0.21569824
2023/5/9 21:32,20685,-0.8183773,-2.36579,-0.87954426,-0.3477753,1.3934655,9.700912,0.071987085,-0.014457024,-0.42728844,0.901129,-1.425705,-1.2119904,9.621536,0.77420044,0.019897461,0.6450043
2023/5/9 21:32,20725,1.3073161,-0.96585727,-2.7289724,-0.22016588,1.6529851,9.663827,0.08149466,-0.02530947,-0.41854954,0.90417606,0.8164673,0.62677,7.083084,0.4610138,-0.40408325,0.4085083
2023/5/9 21:32,20765,1.459022,-1.2514075,-1.3947659,-0.12083578,1.7085327,9.655915,0.08185594,-0.030728694,-0.4197511,0.9034182,1.4048462,0.5016632,8.240692,-0.07055664,0.1370697,-0.24769592
2023/5/9 21:33,20805,-0.64028865,-1.9619848,-1.034051,-0.26047397,1.6857145,9.657169,0.084105134,-0.024370514,-0.4281032,0.89947766,-0.68948364,-0.26028442,8.840439,0.11373901,0.25,-0.2689972
2023/5/9 21:33,20845,-0.86440545,-1.8939729,-1.8152914,-0.3234744,1.7087227,9.651218,0.08577624,-0.023103207,-0.4337452,0.89664584,-1.1779022,-0.2171936,7.884552,-0.052444458,-0.03869629,-0.052749634
2023/5/9 21:33,20885,-0.3767259,-1.6874615,0.0962801,-0.3216516,1.5870715,9.672029,0.0801986,-0.020784331,-0.43664703,0.89581,-0.734375,-0.029846191,9.594009,-0.35391235,0.04866028,0.046325684
2023/5/9 21:33,20925,0.019293815,-1.2183725,0.719985,-0.33238316,1.4851539,9.6878395,0.07569992,-0.018088648,-0.43788692,0.89565474,-0.37165833,0.23950195,10.5074005,-0.09611511,-0.02911377,0.08467102
2023/5/9 21:33,20965,0.34119827,-0.5866114,0.33486652,-0.31587127,1.4640182,9.691607,0.07432887,-0.018459223,-0.43899506,0.8952194,0.046142578,0.84762573,10.144669,0.031707764,-0.019515991,0.014358521
2023/5/9 21:33,21005,0.29106623,-0.019675255,-0.9022217,-0.29720408,1.4943353,9.687571,0.07527692,-0.020118795,-0.44035032,0.8944385,-0.008926392,1.4066772,9.043945,0.059402466,-0.05041504,-5.49E-04
2023/5/9 21:33,21045,0.4269997,0.22862542,-0.29317188,-0.27040336,1.4631827,9.693109,0.07315648,-0.020907117,-0.4436521,0.8929635,0.20295715,1.7915497,9.116364,-0.24632263,-0.065322876,-0.1720581
2023/5/9 21:33,21085,-0.5106042,-0.34674013,0.31211758,-0.28821954,1.3795474,9.704853,0.069521874,-0.018441401,-0.45075452,0.8897455,-0.7451477,1.0906372,10.220688,-0.06523132,0.063568115,-0.17524719
2023/5/9 21:33,21125,-0.26959655,0.010208964,-0.63916206,-0.27322078,1.3813154,9.705034,0.06887415,-0.020173173,-0.45547926,0.8873489,-0.63142395,1.322876,9.094818,-0.039657593,-0.20487976,-0.08683777
2023/5/9 21:33,21165,-0.14777038,-0.12942886,0.7876396,-0.24964352,1.3076587,9.715869,0.06479721,-0.018844413,-0.46051326,0.88508403,-0.28126526,1.2402802,10.541519,-0.24845886,0.15943909,-0.17631531
2023/5/9 21:33,21205,-0.5384228,-0.22781157,0.538229,-0.31066298,1.2654041,9.719704,0.06462608,-0.01601673,-0.464013,0.88332266,-0.9007721,1.0098419,10.3888855,0.15208435,-0.05041504,0.004776001
2023/5/9 21:33,21246,0.22789907,0.2741946,-0.83611584,-0.24529968,1.3591692,9.708906,0.06729447,-0.021330051,-0.46548975,0.8822334,-0.09272766,1.6000061,9.006836,0.18510437,-0.14309692,0.016494751
2023/5/9 21:33,21285,0.31021237,0.44377458,-1.1285067,-0.22527498,1.3808823,9.706327,0.067720704,-0.022998154,-0.46862534,0.88049716,0.06289673,1.825058,8.604004,-0.06097412,-0.05253601,-0.1443634
2023/5/9 21:33,21325,0.1681127,0.21987486,-0.15534782,-0.20444153,1.354396,9.71052,0.06588781,-0.023665613,-0.47355488,0.8779775,-0.036468506,1.5856476,9.605972,-0.04498291,-0.061065674,-0.19335938
2023/5/9 21:33,21365,-0.19234863,0.3857968,-0.53383636,-0.18033557,1.3576359,9.710546,0.065317936,-0.025170365,-0.47813785,0.87549084,-0.390213,1.762207,9.201355,0.012542725,-0.15480042,-0.14968872
2023/5/9 21:33,21405,-0.19013435,0.4735304,-0.7019968,-0.13476697,1.3520089,9.7120695,0.06383625,-0.0273349,-0.48170656,0.8735769,-0.30760193,1.7837677,9.012817,-0.06523132,-0.10900879,-0.13903809
2023/5/9 21:33,21446,-0.3034156,0.7886386,-0.65322304,-0.09824337,1.3286452,9.715731,0.061453696,-0.028898126,-0.48500586,0.8718702,-0.4877777,2.0585022,9.070282,-0.083343506,-0.17504883,-0.080444336
2023/5/9 21:33,21485,0.15892038,1.5498053,-0.178298,-0.026240004,1.2989442,9.720208,0.05858091,-0.031234639,-0.48713726,0.87079847,0.10719299,2.7270813,9.523376,-0.16323853,-0.1643982,-0.12199402
2023/5/9 21:33,21525,0.19520679,1.8868206,0.91585255,0.008034479,1.2374548,9.728259,0.054491486,-0.031297855,-0.49098167,0.86890054,0.186203,3.1412811,10.5624695,-0.19625854,-0.039764404,-0.2423706
2023/5/9 21:33,21565,-0.23712038,1.5808315,1.8098688,0.01593454,1.2263931,9.72965,0.05432934,-0.032163914,-0.49557343,0.86626834,-0.18789673,2.8677368,11.602737,0.17126465,-0.10261536,-0.30734253
2023/5/9 21:33,21605,-0.28934354,0.6699889,1.2326584,0.04776731,1.2996569,9.720031,0.056219876,-0.03543567,-0.5006815,0.86307687,-0.31958008,2.0752563,10.926987,-2.44E-04,-0.05680847,-0.33291626
2023/5/9 21:33,21646,-0.109579906,-0.7246704,2.9578466,0.007668484,1.2038732,9.732471,0.05278028,-0.03156356,-0.5068062,0.85986364,-0.06819153,0.5746918,12.664566,-0.364563,0.10618591,-0.4234619
2023/5/9 21:33,21685,-0.80291265,-2.1935916,3.6817179,-0.08418862,1.1164755,9.742524,0.051123362,-0.025610631,-0.51301783,0.85647136,-0.7750702,-0.95999146,13.700668,0.12120056,0.27449036,-0.25621033
2023/5/9 21:33,21725,-0.76650393,-2.5441184,0.021878242,-0.19483317,1.2394322,9.726059,0.059396368,-0.024104927,-0.5143133,0.8552034,-1.086319,-1.3915558,10.648651,0.59736633,0.21484375,0.1347351
2023/5/9 21:33,21765,0.11489788,-2.168163,-2.321824,-0.23098204,1.439242,9.697712,0.069256276,-0.02752946,-0.510551,0.85661155,-0.15916443,-0.7672577,7.567917,0.43118286,-0.03656006,0.31903076
2023/5/9 21:33,21805,1.7496415,-1.8499717,-1.4089985,-0.15190579,1.5110523,9.688345,0.07025519,-0.032985482,-0.5055065,0.85932493,1.221695,-0.36083984,7.892334,0.043426514,-0.15267944,0.24020386
2023/5/9 21:33,21845,1.5281184,-1.1563303,-0.6833811,-0.06739371,1.5158299,9.688556,0.06844819,-0.036763046,-0.5043902,0.8599732,1.5233612,0.30413818,9.019394,0.07432556,-0.17079163,0.04525757
2023/5/9 21:33,21886,1.3021258,-0.9007077,-0.61085415,-0.007654481,1.5229135,9.687675,0.0671367,-0.039178405,-0.5050592,0.8595772,1.3318176,0.63334656,9.119354,-0.046051025,-0.037628174,-0.03463745
2023/5/9 21:33,21925,0.82021827,-0.8105695,-0.25025272,0.028061949,1.5014163,9.690993,0.065401465,-0.040243175,-0.5065537,0.858782,0.8882904,0.7189331,9.489258,0.016799927,-0.10687256,-0.10600281
2023/5/9 21:33,21966,-0.122993484,-1.0051236,-0.8129711,0.07229933,1.514782,9.6886835,0.06472404,-0.04272474,-0.50895196,0.85729414,-0.016113281,0.5459595,9.029572,0.028518677,-0.119659424,-0.123046875
2023/5/9 21:33,22006,-0.31245908,-1.0190252,-0.4816904,0.09704193,1.476194,9.694422,0.062302664,-0.042900033,-0.5104146,0.856595,-0.21961975,0.47233582,9.231293,-0.17388916,-0.019515991,-0.07298279
2023/5/9 21:33,22045,-0.2665116,-0.6630641,0.4065628,0.06212614,1.3921373,9.707135,0.059536546,-0.039105378,-0.509888,0.8572867,-0.28007507,0.7177429,10.074051,-0.15364075,0.110443115,0.04525757
2023/5/9 21:33,22085,0.3256019,-0.03693199,0.3808422,0.059601117,1.3679605,9.7105875,0.05868513,-0.038129557,-0.5065681,0.859355,0.21672058,1.2259064,10.201538,0.049819946,-0.06213379,0.16989136
2023/5/9 21:33,22125,0.77636117,0.47604156,-0.26859856,0.09110484,1.4008334,9.705656,0.059674975,-0.040230606,-0.5018616,0.8619486,0.8470001,1.825058,9.631714,0.07432556,0.001785278,0.11129761
2023/5/9 21:33,22165,0.4555666,0.31125438,-0.6132307,0.09558104,1.4259541,9.701954,0.060669404,-0.040709395,-0.4990704,0.8634759,0.6345062,1.7993317,9.280365,0.04875183,0.035873413,-5.49E-04
2023/5/9 21:33,22205,-0.14364041,0.04634893,-0.6986332,0.087661035,1.4179336,9.703204,0.060316417,-0.039803497,-0.4975307,0.8644309,0.02218628,1.5144196,8.9266205,-0.141922,0.019897461,-0.010131836
2023/5/9 21:33,22246,-0.44848493,-0.17549014,0.13748074,0.06580846,1.3601047,9.711651,0.058535684,-0.037198987,-0.4951567,0.866031,-0.37165833,1.1929932,9.902863,-0.08439636,0.05291748,0.1262207
2023/5/9 21:33,22285,-0.17583221,0.20259964,0.14827728,0.06338461,1.356427,9.712182,0.058935877,-0.037038483,-0.48970583,0.8691047,-0.1741333,1.5144196,9.981873,0.08177185,-3.51E-04,0.3062439
2023/5/9 21:33,22325,0.40756232,0.61562645,-0.5218077,0.09135724,1.4109422,9.704188,0.060895793,-0.038932897,-0.48182917,0.8732792,0.41604614,1.9848785,9.270187,0.14356995,-0.016326904,0.37548828
2023/5/9 21:33,22365,0.82338125,0.8256023,-1.1377954,0.114310466,1.4531847,9.69771,0.062579565,-0.040474836,-0.4742402,0.87723535,0.9068451,2.2488403,8.566895,0.011474609,0.03161621,0.2700348
2023/5/9 21:33,22405,0.6841695,0.6818955,-0.50377846,0.11625518,1.4286375,9.701333,0.061658226,-0.03959711,-0.46907786,0.8801115,0.79611206,2.1434937,9.193573,-0.1334076,0.047592163,0.16989136
2023/5/9 21:33,22445,0.6375139,0.7522234,0.55368996,0.12564431,1.3886384,9.707023,0.059808187,-0.038763147,-0.46486488,0.8825084,0.79611206,2.0896149,10.220688,-0.06842041,0.007110596,0.18481445
2023/5/9 21:33,22486,0.7669818,1.2520046,0.45364857,0.12895344,1.3898041,9.706812,0.060005136,-0.03859668,-0.4597845,0.8851598,0.85357666,2.5421295,10.193756,0.0423584,0.05291748,0.24232483
2023/5/9 21:33,22525,0.86020505,1.526292,0.15572548,0.12963282,1.4449022,9.698755,0.06329828,-0.039740514,-0.45365474,0.8880379,1.009201,2.9611053,10.045319,0.19470215,0.06889343,0.20291138
2023/5/9 21:33,22565,0.69512516,0.88244,-0.27029324,0.12950608,1.51804,9.687577,0.066342436,-0.041021205,-0.4505675,0.8893283,0.8865051,2.56427,9.395294,0.002944946,0.027359009,0.016494751
2023/5/9 21:33,22605,-0.15088376,-0.7232741,1.3692904,0.081438094,1.4509047,9.698383,0.06364504,-0.036253955,-0.45156327,0.8892275,0.018600464,0.939209,10.871918,-0.39013672,0.24893188,-0.113464355
2023/5/9 21:33,22645,-0.3241796,-1.7802924,3.0892239,-0.014736983,1.2727627,9.723696,0.058296483,-0.028827988,-0.45265812,0.88930935,-0.35849,-0.3841858,12.736404,-0.2314148,0.038009644,0.054840088
2023/5/9 21:33,22685,0.339915,-2.2618914,2.8823652,0.053203702,1.285627,9.7218685,0.057379674,-0.032097556,-0.45071667,0.8902426,0.27297974,-0.98153687,12.9075775,0.3917694,-0.16546631,0.24659729
2023/5/9 21:33,22725,0.39701977,-1.5066669,-1.2553244,0.11658849,1.4716525,9.694898,0.06456566,-0.039103527,-0.44758752,0.8910486,0.52497864,-0.06336975,9.014618,0.52705383,-0.15267944,0.11343384
2023/5/9 21:33,22765,0.121737346,-1.4681228,-2.2707834,0.1896014,1.5786284,9.676898,0.0677475,-0.045008373,-0.44860017,0.8900238,0.34062195,0.12876892,7.4643707,-0.004501343,-0.13137817,-0.16033936
2023/5/9 21:33,22805,-0.8102996,-1.841595,-0.5845642,0.15575701,1.4701717,9.6945715,0.06329984,-0.041322354,-0.45407122,0.8877527,-0.49195862,-0.2962036,8.892502,-0.40078735,0.17329407,-0.23170471
2023/5/9 21:33,22846,-1.0581517,-1.4842944,0.3461504,0.07552067,1.3392764,9.714475,0.059034213,-0.034850996,-0.45800593,0.8863018,-1.039032,-0.22557068,10.0525055,-0.12275696,0.07635498,0.017562866
2023/5/9 21:33,22885,-0.095185615,-0.42754304,0.11898899,0.09108891,1.334958,9.714936,0.058500987,-0.035408553,-0.45729086,0.88668424,-0.16694641,0.7398834,9.929794,0.07325745,-0.10687256,0.1496582
2023/5/9 21:33,22925,0.4782506,0.016178012,0.17808247,0.11366325,1.3462064,9.713145,0.05853162,-0.03661406,-0.45677742,0.88689786,0.5926056,1.4078674,9.963318,-2.44E-04,0.032684326,-0.050613403
2023/5/9 21:33,22965,0.09556711,-0.47805583,0.07233715,0.090658344,1.3580873,9.711733,0.059461195,-0.03610776,-0.45984367,0.8852708,0.26759338,0.9284363,9.898071,0.07218933,0.03161621,-0.21040344
2023/5/9 21:33,23006,-0.30548906,-0.79350424,-0.23453236,0.06808585,1.3770869,9.709242,0.060936525,-0.035635017,-0.4632357,0.8834192,-0.24595642,0.55433655,9.549118,0.071121216,0.065704346,-0.12731934
2023/5/9 21:33,23045,-0.09474524,-0.37632573,-0.9221325,0.029598648,1.3967977,9.706619,0.062455982,-0.034632076,-0.4651126,0.88236624,-0.048431396,0.99786377,8.894897,-0.001312256,0.06037903,-0.11985779
2023/5/9 21:33,23085,-0.16824229,-0.20457423,-0.39832592,0.012459243,1.3634145,9.711403,0.061269782,-0.033201,-0.46723694,0.8813815,-0.1627655,1.2097473,9.33783,-0.11210632,0.001785278,-0.15180969
2023/5/9 21:33,23125,-0.22542171,-0.15087831,-0.16729641,0.008161253,1.3328553,9.715648,0.059911836,-0.032409687,-0.46931303,0.8804007,-0.2549286,1.1576843,9.633514,-0.017288208,-0.05680847,-0.1166687
2023/5/9 21:33,23166,-0.08448475,-0.16853309,-0.5490236,0.029646179,1.334554,9.715373,0.05941303,-0.033525027,-0.47086948,0.8795613,-0.10050964,1.1756287,9.2426605,0.013595581,-0.07917786,-0.080444336
2023/5/9 21:33,23205,0.10285808,0.0560776,-0.71639824,0.055913888,1.3345991,9.715252,0.0585795,-0.03493616,-0.4728509,0.8784987,0.15327454,1.3091125,9.119354,-0.030075073,-0.07597351,-0.14222717
2023/5/9 21:33,23245,-0.025255717,0.22132754,-0.6372194,0.08612248,1.2986046,9.719907,0.055658083,-0.03543971,-0.47589874,0.87702143,0.059310913,1.5335693,8.988876,-0.22076416,-0.11112976,-0.20614624
2023/5/9 21:33,23285,-0.14096239,0.14856803,0.62232685,0.111083746,1.1988255,9.732464,0.05044279,-0.03427921,-0.47948593,0.8754277,-0.066986084,1.4066772,10.238647,-0.21330261,-0.09515381,-0.19975281
2023/5/9 21:33,23325,0.049445286,0.4967332,0.42571926,0.14735894,1.1513538,9.737713,0.047862064,-0.034986187,-0.48201346,0.8741557,0.1407013,1.6113739,10.233856,-0.04925537,-0.11433411,-0.1486206
2023/5/9 21:33,23365,0.13818432,0.7377322,-0.4986887,0.18086162,1.1558442,9.736616,0.04713865,-0.036724262,-0.4843663,0.87282217,0.3346405,1.8346405,9.35878,0.008270264,-0.10366821,-0.20828247
2023/5/9 21:33,23406,-0.29023463,0.67527056,-1.0363493,0.20135994,1.1540334,9.736428,0.046392005,-0.03778979,-0.48801756,0.87078047,-0.038864136,1.840622,8.7608185,-0.07481384,-0.057861328,-0.26686096
2023/5/9 21:33,23445,-0.53721195,0.8049096,-0.8738909,0.22057363,1.1139003,9.740685,0.04396007,-0.037825342,-0.49173903,0.8688092,-0.30581665,1.9375916,8.860184,-0.19200134,-0.13563538,-0.20188904
2023/5/9 21:33,23485,0.027085245,1.2119116,0.58566475,0.26670954,1.0379004,9.747923,0.039290473,-0.03808512,-0.49465623,0.8673644,0.23109436,2.1817932,10.096191,-0.22608948,-0.13349915,-0.20401001
2023/5/9 21:33,23525,0.064640105,1.4796482,1.3354721,0.30353707,1.0014945,9.750653,0.036607884,-0.038921107,-0.49767026,0.86571896,0.42921448,2.4116364,11.070038,0.013595581,-0.11859131,-0.22958374
2023/5/9 21:33,23565,-0.35375035,1.8976462,0.5743456,0.33507273,1.0787951,9.741372,0.03966392,-0.042952355,-0.5006428,0.86367744,0.005432129,2.8898773,10.536728,0.25222778,-0.09941101,-0.22212219
2023/5/9 21:33,23606,-0.68178105,1.3978338,0.61341476,0.35455257,1.1660504,9.730622,0.042321533,-0.045731224,-0.5034813,0.86175644,-0.33035278,2.6773987,10.266174,-0.005569458,-0.06958008,-0.28816223
2023/5/9 21:33,23645,-0.4293796,-0.048509717,2.944993,0.32193846,1.0938803,9.740132,0.03914061,-0.041768912,-0.50708014,0.859996,-0.16993713,1.168457,12.543671,-0.37948608,0.09339905,-0.28604126
2023/5/9 21:33,23685,-0.550345,-1.8500564,4.238167,0.26833388,0.9654465,9.7553215,0.03521313,-0.036330342,-0.5109205,0.8581377,-0.22680664,-0.7157898,14.16275,-0.11315918,0.17010498,-0.23916626
2023/5/9 21:33,23725,-1.2307417,-2.954832,1.9884939,0.10669741,1.0024097,9.7547,0.041166533,-0.03088726,-0.51144165,0.85777545,-1.015091,-1.9146881,12.30484,0.592041,0.4545288,0.1496582
2023/5/9 21:33,23765,-0.41954395,-2.4194598,-3.2893524,0.011562089,1.3374268,9.715016,0.058678478,-0.03505508,-0.5042371,0.8608559,-0.5536194,-1.2688446,6.873596,1.0074921,0.051849365,0.53741455
2023/5/9 21:33,23806,1.136431,-1.4213673,-4.4669943,0.110536456,1.5872244,9.676718,0.06765636,-0.045246784,-0.49517164,0.8649742,1.166626,0.14253235,5.2778625,0.24369812,-0.29968262,0.38827515
2023/5/9 21:33,23845,2.3224034,-0.8215114,-1.1541691,0.21789552,1.5093852,9.6873455,0.06161373,-0.04781827,-0.49244425,0.86684245,2.5594482,0.7141571,7.9928894,-0.5829468,0.1136322,-0.10813904
2023/5/9 21:33,23885,1.1550331,-0.8266907,1.821557,0.1095416,1.2589898,9.724882,0.053006765,-0.03686857,-0.4966576,0.8655416,1.5131836,0.516037,11.283722,-0.44978333,0.26490784,-0.27645874
2023/5/9 21:33,23925,0.0892739,-1.215979,1.2482643,0.08649121,1.2322456,9.7285385,0.052940212,-0.035939958,-0.5001345,0.8635804,0.41004944,0.006072998,11.483627,0.37046814,-0.074905396,-0.092163086
2023/5/9 21:33,23966,-0.2792238,-0.9035804,-1.7675238,0.10209702,1.3896296,9.707157,0.05940739,-0.0405555,-0.49918926,0.8635022,-0.1855011,0.47532654,8.194595,0.3161316,-0.055740356,0.06869507
2023/5/9 21:33,24005,-0.11869332,-0.7722293,-1.0097971,0.12929651,1.3945758,9.706123,0.05784763,-0.040954,-0.4979001,0.8643332,0.03715515,0.6602783,8.541153,-0.28466797,0.007110596,0.016494751
2023/5/9 21:33,24045,-0.18674126,-0.5798336,0.560935,0.09005372,1.2531964,9.72583,0.053254332,-0.035841852,-0.4964271,0.86570174,-0.04185486,0.634552,10.206329,-0.26869202,0.14027405,0.107040405
2023/5/9 21:33,24085,0.09678366,-0.089734554,0.64124393,0.06605472,1.2041978,9.732211,0.051832974,-0.03329687,-0.49264693,0.86804587,0.111968994,1.1085968,10.561264,0.008270264,0.030548096,0.19332886
2023/5/9 21:33,24125,0.28162217,0.3225546,-0.24279022,0.07737058,1.2172848,9.730499,0.052334577,-0.033818625,-0.48742455,0.87093896,0.31188965,1.5054321,9.587418,-0.002380371,-3.51E-04,0.24232483
2023/5/9 21:33,24166,0.33913368,0.40778267,-0.106461525,0.08520127,1.1988991,9.732717,0.051507052,-0.033415493,-0.48250422,0.8737392,0.39927673,1.6496887,9.672424,-0.07588196,0.042266846,0.18054199
